ax,ay,az,gx,gy,gz
-sTwist-,-s-,-s-,-s-,-s-,-s-
0.1660156,0.9694824,-0.1433105,-0.8396947,-0.5114504,0.03053435
0.1677246,0.9699707,-0.1315918,-0.6946565,-0.480916,0.1679389
0.1616211,0.963623,-0.1450195,-0.6030535,-1.969466,0.07633588
0.1359863,0.9682617,-0.1508789,-0.9312977,-7.412214,1.267176
0.6381836,0.9233398,-0.1523438,-18.73282,-186.1374,-23.41985
0.03955078,1.010742,-0.1594238,-29.9084,-183.3588,-46.35878
-0.2109375,0.9841309,-0.0859375,-19.94657,-184.4198,17.23664
0.1286621,0.963623,-0.1179199,-25.25954,-172.5878,-1.236641
-0.05761719,0.996582,-0.07128906,-7.229008,-179.3588,11.60305
0.1130371,0.8642578,-0.2438965,-9.748092,-169.9237,-25.79389
-0.09838867,0.9553223,-0.08178711,-18.64886,-122.7328,-2.885496
0.1105957,0.963623,-0.0402832,-20.52672,-100.4504,9.114504
1.293701,0.9177246,-0.2338867,-7.137404,-181.1374,-76.12214
-0.1413574,1.131836,0.03222656,-30.37405,-66.03817,-36.14504
-0.7207031,0.9470215,0.3156738,11.40458,144.1374,22.27481
0.1435547,0.9812012,-0.0847168,36.17557,250.1298,24.79389
0.3684082,1.100342,-0.1599121,44.74809,219.3817,73.41985
0.1965332,1.222168,0.07617188,35.44275,250.1298,33.31298
0.6713867,0.8608398,-0.1315918,2.984733,250.1298,-4.366412
0.05761719,0.8898926,-0.4116211,40.13741,250.1298,51.75573
0.05908203,1.328857,0.3693848,56.56488,250.1298,14.31298
0.5522461,0.7109375,0.02197266,37.03053,250.1298,-24.19084
0.09521484,0.9335938,-0.2416992,45.80153,235.1527,-19.9542
0.006591797,1.222168,0.06640625,52.79389,250.1298,-24.45038
0.1745605,0.6032715,-0.2116699,24.80153,222.6336,-42.80153
0.7329102,1.159424,-0.2785645,29.62595,173.6336,-16.18321
0.2226563,1.166992,-0.07055664,20.38931,119.8702,-13.58779
-0.003417969,1.054688,-0.1086426,8.351145,50.08397,-3.175573
0.1079102,1.012451,-0.09594727,-5.992366,-1.0,4.748092
-0.03686523,0.9492188,-0.128418,-5.442748,1.160305,17.51908
0.2756348,0.939209,-0.1396484,0.2977099,-1.70229,6.610687
0.2814941,0.9484863,-0.1352539,-0.7175572,-1.465649,0.7328244
0.2409668,0.9577637,-0.1506348,-1.435114,0.6717557,-2.793893
0.1765137,0.96875,-0.1540527,-0.4427481,-1.038168,-2.656489
0.1013184,0.9794922,-0.1437988,-1.961832,-0.3587786,1.740458
0.1450195,0.9724121,-0.1306152,-1.053435,-0.5419847,2.78626
0.2036133,0.963623,-0.1437988,-1.007634,-0.6259542,0.4198473
0.204834,0.9658203,-0.145752,-0.5114504,-0.8931297,-1.251908
0.1508789,0.9741211,-0.1430664,-0.2900764,-0.8931297,-0.5648855
0.1335449,0.9743652,-0.1369629,-1.435114,-0.3282443,0.9541985
0.154541,0.9665527,-0.1259766,-1.183206,0.1068702,1.396947
0.1850586,0.9592285,-0.1350098,-0.8625955,-0.1450382,0.1755725
0.1821289,0.9641113,-0.1352539,-0.4580153,-0.2824428,-0.4580153
-eTwist-,-e-,-e-,-e-,-e-,-e-
-sTwist-,-s-,-s-,-s-,-s-,-s-
0.1674805,0.9672852,-0.1379395,-0.5038168,-0.6030535,-0.2061069
0.1669922,1.011719,-0.1420898,-0.2824428,-0.8091603,0.06870229
0.1276855,0.871582,-0.1972656,-6.152672,-24.07634,0.129771
0.4213867,0.9089355,-0.1503906,-20.0916,-191.0992,-15.0458
-0.06396484,1.022705,-0.08227539,-31.76336,-230.8015,-24.77863
-0.1054688,0.994873,-0.2016602,-36.8168,-226.2977,-6.427481
-0.1149902,1.003906,-0.03442383,-29.03053,-197.1908,9.587787
0.09130859,0.9760742,-0.1435547,-20.90076,-149.8015,17.32825
0.2299805,1.000488,-0.2236328,-17.30534,-132.8092,31.32825
0.3562012,1.025146,-0.1293945,-18.70229,-101.5878,5.221374
0.5422363,0.9099121,-0.07421875,-20.81679,-150.4809,-16.93893
0.1367188,0.9938965,-0.09423828,-18.40458,-118.7481,-7.832061
0.4765625,0.9074707,-0.1374512,-18.05343,-196.3969,-34.03053
-0.1325684,1.077148,-0.08837891,-11.22137,-60.20611,-64.48855
-1.390869,1.259277,0.5195313,35.00763,163.4504,68.66412
0.1311035,0.890625,0.135498,23.40458,250.1298,40.50382
0.3554688,0.5285645,-0.3928223,19.58015,209.6412,31.70229
0.2006836,1.304688,-0.03930664,54.83206,250.1298,11.20611
0.2780762,0.9104004,-0.06323242,33.72519,250.1298,-21.45802
0.2521973,0.5825195,-0.715332,28.70992,242.2672,-24.49618
-0.09057617,1.228271,-0.1315918,45.70992,250.1298,-16.86259
0.3266602,0.6362305,-0.4865723,20.38168,250.1298,-52.53435
0.01269531,1.112793,-0.06689453,45.54962,250.1298,-2.412214
0.2211914,1.054932,-0.003417969,34.48855,250.1298,-22.29008
0.1411133,0.90625,-0.2348633,-3.480916,19.93893,0.7175572
0.1425781,0.9821777,-0.1687012,-4.076336,-0.7328244,4.885496
0.223877,0.9853516,-0.08618164,-0.6259542,-1.923664,4.465649
0.246582,0.9597168,-0.09814453,-0.778626,-1.412214,-0.0610687
0.2131348,0.9589844,-0.1154785,0.2671756,-0.870229,-2.862595
0.1594238,0.9729004,-0.1379395,0.740458,-0.7175572,-1.870229
0.1318359,0.9775391,-0.1552734,-0.8396947,-0.3587786,0.389313
0.1369629,0.9772949,-0.1403809,-1.671756,-0.6412213,2.21374
0.1879883,0.9580078,-0.1206055,-2.557252,-0.09923664,1.351145
0.208252,0.9633789,-0.1164551,-0.6564885,-0.8396947,-0.4580153
0.1877441,0.9743652,-0.1035156,0.1221374,-0.5267176,-0.2213741
0.1518555,0.9660645,-0.1594238,-1.068702,-0.6641222,0.9923664
0.175293,0.9621582,-0.1357422,-1.80916,-0.4122138,0.6946565
0.1916504,0.9667969,-0.1135254,-1.145038,-0.778626,0.2748091
0.1879883,0.9658203,-0.1052246,-0.01526718,-0.5648855,-0.2213741
0.1757813,0.9755859,-0.1418457,0.4885496,-0.6946565,0.04580153
0.1662598,0.9731445,-0.1525879,-0.5572519,-0.3816794,0.4045802
0.1816406,0.963623,-0.135498,-1.473282,-0.08396947,0.4198473
0.1914063,0.9663086,-0.1079102,-1.51145,-0.5648855,0.1755725
-eTwist-,-e-,-e-,-e-,-e-,-e-
-sTwist-,-s-,-s-,-s-,-s-,-s-
0.1765137,0.9699707,-0.109375,-0.5114504,-0.778626,0.3053435
0.1936035,0.9780273,-0.09960938,-0.2442748,-1.48855,0.9389313
0.1689453,1.006592,-0.1142578,-1.068702,-0.9541985,0.09160305
0.2883301,0.9604492,-0.1818848,-2.80916,-12.67939,-2.274809
0.8154297,0.9355469,-0.1975098,-18.9313,-157.2595,-21.1145
0.08862305,0.9675293,-0.2609863,-36.15267,-232.8092,-16.61069
0.02050781,0.9719238,-0.1557617,-40.03053,-248.1832,-8.053435
-0.1240234,1.01416,-0.06689453,-35.22901,-239.6336,8.221375
-0.06762695,1.053955,-0.05126953,-21.72519,-177.3817,29.67939
0.2524414,0.9536133,-0.07275391,-19.84733,-95.23664,11.06107
0.3566895,0.8393555,-0.3476563,-23.54962,-120.3664,0.1908397
0.3752441,1.01001,-0.1621094,-21.57252,-158.0305,-6.206107
0.282959,0.9189453,-0.1303711,-24.48092,-156.1756,-13.79389
-0.4829102,0.9995117,0.04785156,4.740458,250.1298,-57.83206
0.3776855,0.6135254,-0.7033691,5.541985,201.7786,47.01527
0.3544922,1.538086,0.4318848,68.1832,154.7176,59.99237
0.2944336,0.8012695,-0.03759766,25.20611,250.1298,-50.17557
0.1936035,0.5407715,-0.4399414,58.62595,204.0229,44.32061
0.04882813,1.463135,0.2739258,59.98473,250.1298,21.94657
0.4311523,0.7624512,-0.3659668,10.46565,244.1221,-27.47328
0.04125977,0.9633789,-0.04003906,44.58779,188.6412,42.20611
-0.06420898,0.9379883,0.0949707,31.29771,250.1298,-28.1145
0.03466797,0.7849121,-0.05249023,43.12214,202.6641,22.96183
-0.05664063,1.246826,0.002929688,40.57252,250.1298,14.35114
0.309082,0.7302246,-0.479248,18.98473,195.6183,-6.938931
0.5549316,0.876709,-0.371582,13.35114,68.41985,-1.755725
0.002197266,1.063477,-0.1166992,1.076336,41.87786,10.9084
0.2570801,0.9470215,-0.1696777,-10.36641,-4.587786,5.251908
0.1535645,0.9560547,-0.03613281,-2.610687,0.6412213,8.343512
0.2861328,0.9594727,-0.06762695,3.305344,-1.183206,2.671756
0.279541,0.9589844,-0.1550293,3.0,-1.534351,-2.21374
0.1918945,0.9545898,-0.206543,-2.419847,-0.1679389,-2.167939
0.1413574,0.9624023,-0.138916,-4.160306,-0.2366412,0.6793893
0.1616211,0.9716797,-0.06933594,-1.78626,0.04580153,2.083969
0.2060547,0.9621582,-0.08276367,1.007634,-0.8396947,1.267176
0.2114258,0.9492188,-0.1577148,1.022901,-1.015267,-0.3358779
0.1945801,0.9755859,-0.1660156,-0.7862596,-0.610687,-0.7938931
0.1791992,0.9665527,-0.1105957,-1.900763,-0.5801527,0.6641222
0.1862793,0.970459,-0.08862305,0.0,-1.022901,0.9160305
0.1936035,0.9555664,-0.1254883,0.4656488,-0.7099237,0.4122138
0.1984863,0.9682617,-0.1396484,-0.03816794,-0.5877862,-0.1374046
0.1865234,0.9621582,-0.1379395,-1.274809,-0.5114504,-0.09923664
0.1716309,0.9638672,-0.1186523,-1.198473,-0.4198473,0.5954198
-eTwist-,-e-,-e-,-e-,-e-,-e-
-sTwist-,-s-,-s-,-s-,-s-,-s-
0.1821289,0.9641113,-0.1269531,-0.5648855,-0.740458,0.4122138
0.2041016,0.9763184,-0.1103516,0.5419847,-1.740458,0.7938931
0.2111816,1.020508,-0.07763672,-0.1221374,-3.748092,1.099237
0.348877,0.9282227,-0.2011719,-9.145039,-61.49618,-6.183206
0.1052246,0.9147949,-0.06713867,-23.41221,-202.855,4.480916
0.08154297,1.025391,-0.2561035,-17.70992,-94.99236,18.86259
0.3803711,0.9770508,-0.1516113,-17.12977,-136.4046,28.25954
0.4008789,0.947998,0.002441406,-24.92366,-181.7786,-17.07634
0.3259277,0.9104004,-0.190918,-32.96947,-206.1908,-14.17557
0.03076172,1.006104,-0.06176758,-26.92366,-187.4886,0.4656488
0.1657715,0.8798828,-0.04638672,-27.46565,-174.6031,-7.251908
0.1887207,0.9472656,-0.1811523,-25.67939,-175.1298,-5.610687
0.142334,0.9975586,-0.1000977,-23.67175,-171.5038,-4.221374
0.1625977,0.9624023,-0.1081543,-23.30534,-164.8855,-2.610687
0.1472168,0.9707031,-0.1394043,-17.54962,-58.52672,-48.51908
-1.179932,1.156738,0.3652344,29.60305,155.3053,115.5343
0.3085938,0.6374512,-0.09350586,13.96947,250.1298,6.984733
0.4885254,0.7651367,-0.2919922,51.32061,176.7863,8.641221
-0.03173828,1.383789,0.4091797,52.92366,250.1298,61.42748
0.9611816,0.7009277,-0.3427734,30.66412,250.1298,-20.08397
0.05566406,0.8063965,-0.2092285,52.57252,230.7481,9.412213
-0.1201172,1.035645,-0.2062988,36.0458,250.1298,-12.44275
0.3093262,0.7827148,-0.4833984,28.19847,250.1298,-28.77099
0.2585449,1.119385,-0.01025391,44.44275,250.1298,-9.78626
0.5788574,1.057617,-0.2836914,26.77863,135.0763,-14.61069
0.06958008,0.9536133,-0.1855469,13.91603,84.58778,-10.80153
0.1364746,0.9780273,-0.2810059,-1.648855,17.32061,-5.152672
-0.008789063,0.9914551,-0.1000977,-3.885496,-5.244275,8.175572
0.1245117,0.9526367,-0.08081055,-5.534351,-2.053435,14.39695
0.2619629,0.9311523,-0.1057129,-1.755725,-1.396947,6.664122
0.2724609,0.9709473,-0.09521484,2.572519,-1.206107,0.3053435
0.2531738,0.9692383,-0.140625,1.671756,-0.2137404,-3.267176
0.1970215,0.9455566,-0.1884766,-2.412214,-0.8854962,-3.312977
0.1381836,0.9714355,-0.1359863,-2.603053,-0.4961832,-0.4427481
0.1437988,0.9858398,-0.08740234,-2.030534,-0.7328244,1.778626
0.1806641,0.9594727,-0.09667969,0.02290076,-0.519084,2.022901
0.2199707,0.9663086,-0.1347656,0.5572519,-1.198473,0.1374046
0.2097168,0.965332,-0.1289063,-1.770992,-0.5725191,-0.3664122
0.1672363,0.9782715,-0.1032715,-0.8091603,-0.6641222,0.8854962
0.1794434,0.9726563,-0.1154785,0.1450382,-0.6335878,0.9236641
0.1972656,0.9599609,-0.1320801,-0.3282443,-0.6030535,0.2442748
0.2021484,0.9609375,-0.137207,-1.061069,-0.7099237,-0.2442748
0.1804199,0.9741211,-0.1193848,-0.740458,-0.5038168,-0.08396947
-eTwist-,-e-,-e-,-e-,-e-,-e-
-sTwist-,-s-,-s-,-s-,-s-,-s-
0.1901855,0.9658203,-0.1333008,-0.6641222,-0.4503817,0.3282443
0.1855469,0.932373,-0.1271973,-2.549618,0.3358779,-0.3129771
0.1513672,0.9338379,-0.1835938,-1.572519,0.870229,0.7938931
0.1914063,0.940918,-0.1513672,-1.328244,-16.37405,-3.099237
0.6379395,0.923584,-0.2119141,-16.03817,-125.0382,-19.13741
0.4836426,0.9711914,-0.1052246,-32.27481,-233.3206,-24.07634
0.1347656,1.038574,-0.0637207,-41.9313,-248.1832,-28.12214
-0.1955566,1.02417,-0.05273438,-28.13741,-201.9237,2.618321
0.1293945,0.9499512,-0.1977539,-25.87023,-145.0916,13.65649
0.07714844,0.9157715,-0.1186523,-13.64886,-103.2137,25.89313
0.3708496,0.8979492,-0.1435547,-21.68702,-140.1679,31.42748
0.4887695,0.8977051,-0.1357422,-26.00763,-224.9313,-14.44275
0.1972656,0.920166,-0.1711426,-37.35115,-248.1832,-27.35114
-0.2131348,1.140381,-0.08081055,-8.854961,152.6031,-111.9084
0.2114258,0.9260254,-0.1647949,14.64886,136.3359,88.61832
0.2993164,1.384033,0.2419434,36.64122,197.0229,66.90839
0.7062988,0.802002,-0.2304688,19.80916,250.1298,-6.282443
0.2463379,0.9658203,-0.01953125,56.77099,186.6183,-3.40458
-0.05053711,1.05127,-0.2026367,44.51908,250.1298,-19.70229
0.4541016,0.6999512,-0.4711914,22.38168,168.6107,-61.70992
-0.1296387,1.26123,0.02783203,42.62595,214.1298,14.79389
0.2824707,0.8044434,-0.1235352,25.56489,250.1298,-24.96947
0.01611328,0.9453125,-0.1708984,32.22901,222.7939,16.14504
0.1789551,1.039307,0.006835938,39.70992,250.1298,-37.77863
0.3393555,0.838623,-0.199707,36.52672,187.6183,3.648855
0.4267578,1.124023,-0.1782227,21.9313,83.19847,-12.80153
0.09033203,0.953125,-0.2365723,-3.29771,9.0,-4.068702
0.04858398,0.9665527,-0.2043457,-9.259542,0.5725191,4.816794
0.2370605,0.9316406,-0.2050781,-0.5419847,-0.2213741,1.045802
0.2321777,0.9536133,-0.1860352,-3.122137,0.07633588,-1.480916
0.1950684,0.9833984,-0.07373047,-2.908397,-0.5877862,-1.854962
0.1547852,0.9645996,-0.06689453,-1.366412,-0.3664122,0.1145038
0.1638184,0.9663086,-0.09912109,1.419847,-0.740458,1.763359
0.1953125,0.9682617,-0.1513672,1.076336,-0.8396947,1.290076
0.2197266,0.9538574,-0.1640625,-1.671756,-0.4122138,-0.5267176
0.1921387,0.9597168,-0.09521484,-1.259542,-0.4427481,-0.519084
0.1762695,0.9699707,-0.1064453,0.129771,-0.6335878,0.6641222
0.1855469,0.9602051,-0.1335449,0.2748091,-0.870229,1.038168
0.1848145,0.9648438,-0.1369629,-0.648855,-0.2213741,0.7251908
0.2055664,0.9628906,-0.1271973,-1.412214,-0.1984733,0.05343511
0.2004395,0.9650879,-0.1010742,-0.9694656,-0.7709923,-0.09160305
0.1843262,0.967041,-0.1179199,-0.09923664,-0.8549618,0.3969466
0.1879883,0.9680176,-0.1262207,-0.3740458,-0.480916,0.6717557
-eTwist-,-e-,-e-,-e-,-e-,-e-
-sTwist-,-s-,-s-,-s-,-s-,-s-
0.1967773,0.9609375,-0.1196289,-0.648855,-0.4885496,0.01526718
0.2121582,0.9665527,-0.09790039,0.259542,-2.068702,0.6412213
0.2050781,1.008057,-0.06225586,0.2900764,-0.2977099,-1.167939
0.3740234,0.954834,-0.1943359,-8.709924,-81.08397,4.236641
0.4099121,0.8713379,-0.236084,-32.29771,-199.2214,-25.62595
0.3017578,0.9602051,-0.1228027,-45.35878,-248.1832,-27.25191
-0.2155762,1.125732,0.2055664,-23.83969,-177.1908,-12.22137
0.270752,0.7131348,-0.2128906,-35.08397,-217.2519,-21.37405
-0.1967773,1.076904,-0.1333008,-12.14504,-164.5573,6.389313
0.263916,1.046875,0.008544922,-16.19847,-146.2748,13.64122
0.3405762,0.8254395,-0.1965332,-28.06107,-173.7328,-2.503817
0.2712402,0.9960938,-0.1818848,-27.84733,-198.9847,-9.839695
0.15625,1.058838,-0.0703125,-25.37405,-110.5267,-48.79389
-0.9536133,0.9785156,-0.1057129,-0.4045802,171.7634,43.9084
0.4545898,1.058838,0.08544922,38.21374,119.5115,70.771
0.2182617,1.22583,0.2851563,31.15267,175.4886,62.9084
0.5063477,0.8378906,-0.298584,27.90076,250.1298,6.267176
0.963623,0.7209473,-0.2932129,32.24427,179.1756,-13.29771
-0.07666016,1.03125,-0.2614746,43.65649,250.1298,25.59542
1.706055,0.9047852,-0.2851563,21.53435,250.1298,-81.10687
0.04150391,0.9367676,-0.2307129,38.58015,201.8168,3.923664
0.07714844,1.319824,0.2277832,35.33588,216.4275,4.549618
0.2177734,0.6777344,-0.2797852,18.50382,173.1832,9.587787
-0.09960938,1.091064,-0.1057129,31.48092,197.1069,44.86259
0.404541,0.8803711,-0.1159668,18.87786,101.4504,17.22901
0.3330078,0.9577637,-0.2365723,3.717557,25.91603,4.587786
0.2050781,1.054932,-0.1638184,-6.038168,1.51145,3.351145
0.1811523,0.9645996,-0.02392578,-6.167939,-5.427481,12.22137
0.2897949,0.940918,-0.03808594,-0.4580153,-6.610687,4.29771
0.2922363,0.9782715,-0.09936523,5.007634,-0.7480916,0.7480916
0.2641602,0.947998,-0.1867676,-0.5572519,-0.5801527,-2.29771
0.173584,0.9572754,-0.1679688,-3.625954,-0.09923664,-0.2290076
0.1745605,0.9667969,-0.09765625,-3.312977,-0.8396947,2.526718
0.215332,0.9755859,-0.05786133,0.129771,-0.4045802,1.847328
0.2470703,0.9621582,-0.1184082,2.007634,-1.10687,-0.9312977
0.1821289,0.9587402,-0.1499023,-2.129771,-0.1526718,0.3969466
0.1896973,0.9558105,-0.107666,-2.259542,-0.4122138,1.755725
0.2285156,0.9614258,-0.07177734,0.3435115,-0.6641222,1.419847
0.2412109,0.965332,-0.109375,0.7328244,-1.152672,-0.2290076
0.2075195,0.9616699,-0.1391602,-0.4045802,-0.7557252,-0.5877862
0.1882324,0.9572754,-0.1315918,-1.70229,-0.9694656,0.3969466
0.1928711,0.9587402,-0.114502,-1.778626,-0.5343512,1.412214
0.2165527,0.958252,-0.08984375,-0.6259542,0.007633588,0.6183206
-eTwist-,-e-,-e-,-e-,-e-,-e-
-sTwist-,-s-,-s-,-s-,-s-,-s-
0.2026367,0.9614258,-0.1005859,-1.122137,-0.480916,0.4351145
0.2055664,0.9655762,-0.1508789,-2.419847,-0.1526718,-0.08396947
0.340332,0.8942871,-0.1618652,-7.870229,-69.41985,1.274809
0.5014648,0.8330078,-0.3823242,-36.44275,-227.6488,-25.96183
0.111084,0.9438477,-0.2243652,-42.9313,-206.771,-43.26717
-0.1147461,1.10083,0.260498,-19.46565,-219.0382,24.39695
0.4086914,0.8425293,0.05517578,-43.91603,-248.1832,-17.74046
0.001464844,0.9914551,-0.1154785,-27.87786,-153.8855,-28.21374
0.1003418,0.9909668,-0.1728516,-37.70992,-179.7557,-13.78626
0.09887695,0.982666,-0.06518555,-24.24427,-150.5343,5.366412
0.1098633,1.006348,0.015625,-20.58779,-112.2137,9.679389
0.357666,0.9504395,-0.0703125,-21.60305,-162.2748,-1.061069
0.809082,0.9570313,0.02148438,-28.03053,-248.1832,-31.0229
0.03027344,0.9318848,-0.1850586,-30.83206,-235.5878,-31.03053
-0.8635254,1.231445,0.1171875,24.26718,165.9542,103.8473
0.2380371,0.6035156,-0.2167969,12.25191,216.7939,38.75573
0.4189453,1.046143,0.08862305,43.12214,129.7634,36.32824
-0.1049805,1.147705,0.3391113,42.64122,250.1298,39.63359
1.53418,0.7587891,-0.4951172,36.58015,203.1374,-22.70229
0.01977539,1.113281,0.008544922,62.15267,229.0763,31.48855
0.9099121,1.041504,-0.1171875,41.34351,250.1298,-29.83206
0.1171875,0.8168945,-0.3808594,32.48855,206.6183,9.854961
-0.02758789,1.029297,-0.06982422,39.74809,250.1298,-16.64122
0.2766113,0.6381836,-0.3288574,22.64886,225.1908,-22.42748
0.107666,1.259766,0.2016602,46.21374,213.4504,23.38931
0.4528809,1.068604,-0.1520996,12.87023,59.43512,2.862595
0.2670898,0.9580078,-0.3151855,-3.839695,-1.732824,-0.9007633
0.01831055,0.9475098,-0.1464844,-12.21374,0.1221374,11.03053
0.192627,0.9616699,-0.005615234,-5.183206,-1.938931,11.32061
0.2302246,0.9936523,0.03320313,4.870229,-3.015267,8.679389
0.2453613,0.9567871,-0.1418457,6.656488,-2.076336,6.099236
0.2351074,0.9489746,-0.2468262,0.2366412,-0.7022901,3.526718
0.2314453,0.9362793,-0.1992188,-7.030534,0.7633588,1.076336
0.2480469,0.9631348,-0.05566406,-4.847328,0.1145038,-0.1526718
0.2265625,0.9765625,-0.01806641,0.7480916,-1.10687,-1.038168
0.1884766,0.9707031,-0.1057129,4.206107,-1.396947,0.5725191
0.1906738,0.9663086,-0.1816406,0.3435115,-0.8167939,1.725191
0.2087402,0.9472656,-0.1589355,-4.068702,-0.7328244,0.9007633
0.2172852,0.9570313,-0.09399414,-2.442748,-0.6030535,0.4045802
0.2233887,0.9707031,-0.08154297,0.5801527,-0.4274809,-0.03053435
0.2150879,0.9572754,-0.1237793,1.412214,-0.7328244,-0.07633588
0.2004395,0.967041,-0.1645508,-0.3358779,-0.7022901,0.5038168
0.2019043,0.9609375,-0.1140137,-2.770992,-0.2977099,0.648855
-eTwist-,-e-,-e-,-e-,-e-,-e-
-sTwist-,-s-,-s-,-s-,-s-,-s-
0.2067871,0.9611816,-0.1064453,-0.6183206,-0.6641222,0.2061069
0.1953125,1.008301,-0.1245117,-0.5801527,-0.6793893,-0.0610687
0.1774902,0.9133301,-0.137207,-4.664122,-12.19084,2.70229
0.597168,0.857666,-0.3261719,-17.31298,-134.7099,-18.25191
0.4333496,0.9606934,-0.1586914,-40.32824,-248.1832,-27.81679
-0.04248047,0.9160156,-0.09692383,-37.80916,-121.3969,-68.77863
0.111084,0.7944336,-0.1452637,-28.17557,-243.458,1.175573
0.2983398,1.218018,0.217041,-30.54198,-235.1069,-23.22137
-0.2521973,0.923584,-0.1166992,-19.64122,-115.4885,22.16794
0.3974609,0.8000488,-0.2744141,-18.75573,-160.8855,4.664122
0.3364258,1.026123,-0.140625,-22.57252,-194.5038,-10.58779
0.2770996,0.9440918,-0.152832,-38.26717,-249.3893,-15.10687
0.1516113,0.9536133,-0.1230469,-38.09924,-248.1832,-12.29008
-0.1311035,1.043457,-0.03833008,-29.68702,-154.0305,-15.84733
-0.2944336,0.9067383,-0.203125,-12.75572,113.9924,3.450382
0.4033203,0.9467773,0.046875,39.76336,130.0763,91.46565
0.2670898,1.344482,0.6125488,47.03817,172.6336,63.15267
0.8376465,0.6508789,-0.1914063,31.82443,219.7099,-2.916031
0.3710938,0.8237305,-0.4050293,49.03817,200.2977,-24.12214
-0.08496094,1.001709,-0.2770996,43.58779,250.1298,-50.68702
0.380127,0.7260742,-0.5493164,24.93893,231.6107,-54.70229
0.06347656,1.505859,0.1950684,47.34351,196.0687,17.44275
0.2988281,0.9423828,0.01367188,19.19084,250.1298,-43.87023
-0.1582031,0.8498535,-0.2780762,27.38168,163.6565,29.29008
0.3300781,1.115234,0.1003418,23.77099,86.75572,0.740458
0.1594238,1.072266,-0.1274414,4.29771,-6.0,4.206107
0.02319336,0.9680176,-0.1171875,-8.496183,2.282443,17.94657
0.234375,0.9421387,-0.08081055,-6.229008,-1.19084,13.62595
0.2080078,0.9821777,-0.006347656,2.381679,-0.9083969,13.41985
0.2565918,0.9697266,-0.09423828,4.870229,-2.236641,10.35878
0.2202148,0.9345703,-0.2133789,-0.09160305,-0.7328244,8.175572
0.25,0.9338379,-0.1938477,-4.755725,-0.1908397,5.343512
0.1855469,0.9509277,-0.1647949,-1.267176,-1.236641,0.8854962
0.1945801,0.9694824,-0.1218262,-1.847328,-0.2061069,1.244275
0.2226563,0.9602051,-0.09790039,-1.198473,-0.3282443,0.3053435
0.2199707,0.9606934,-0.1025391,0.2824428,-0.6030535,-0.4656488
0.2133789,0.9672852,-0.1350098,0.6717557,-1.251908,-0.1145038
0.1887207,0.9663086,-0.1342773,-1.10687,-0.7099237,0.3053435
0.1975098,0.9609375,-0.1049805,-1.801527,-0.7022901,0.8778625
0.2084961,0.9560547,-0.1030273,-0.4885496,-0.519084,0.4427481
0.2180176,0.9572754,-0.1140137,0.1221374,-0.4427481,0.1068702
0.2075195,0.9606934,-0.1323242,-0.7862596,-0.610687,0.08396947
0.201416,0.9597168,-0.121582,-1.549618,-0.2900764,0.2748091
-eTwist-,-e-,-e-,-e-,-e-,-e-
-sTwist-,-s-,-s-,-s-,-s-,-s-
0.2143555,0.9592285,-0.1154785,-0.7709923,-0.870229,0.05343511
0.2084961,0.9226074,-0.1862793,-3.496183,0.129771,-0.4656488
0.2087402,0.8862305,-0.1623535,-6.603054,-41.67176,10.82443
0.5585938,0.8369141,-0.359375,-27.80916,-173.8321,-14.62595
0.4221191,0.9719238,-0.2338867,-47.19084,-248.1832,-36.61069
-0.05444336,1.276123,0.1835938,-26.93893,-208.5649,13.93893
0.3781738,0.784668,-0.09838867,-47.87786,-232.1145,-30.71756
0.01831055,0.942627,-0.06567383,-21.40458,-184.7481,-6.465649
-0.1118164,1.169434,0.1230469,-6.206107,-124.2977,23.63359
0.3959961,0.7092285,-0.279541,-30.84733,-178.1679,5.70229
0.3486328,0.9013672,-0.2473145,-30.0458,-248.1832,-4.977099
0.3120117,1.008545,-0.208252,-43.53435,-248.1832,-21.63359
0.04760742,1.003174,-0.1437988,-32.60305,-148.2519,-43.0687
-0.0612793,0.9714355,-0.1362305,-20.08397,-105.6565,-4.21374
-0.8591309,1.215332,0.4414063,19.09924,211.0992,82.32825
0.4287109,0.5927734,0.08105469,30.51145,155.5267,24.41985
0.111084,1.341553,0.53125,60.0916,155.2748,58.9771
-0.05444336,1.012695,-0.1142578,41.0,250.1298,6.832061
0.9306641,0.7663574,-0.8195801,33.52672,195.0916,-26.67175
-0.0390625,1.055664,0.006347656,54.49618,226.4427,9.923664
0.3156738,0.8820801,-0.348877,21.76336,250.1298,16.05343
0.3723145,1.030029,-0.1547852,17.19847,250.1298,-47.89313
0.2885742,0.7285156,-0.1696777,31.05343,195.6947,-10.59542
-0.1005859,1.18042,0.1230469,47.03817,237.0534,23.39695
0.4279785,1.003418,-0.2473145,21.47328,81.50381,31.44275
0.3366699,0.9228516,-0.1850586,7.358778,56.33588,6.465649
0.2712402,0.8984375,-0.3291016,-11.92366,-8.183207,5.259542
0.1169434,1.012939,0.003662109,-6.954198,-1.740458,15.93893
0.2373047,0.9677734,0.01806641,-0.2290076,-9.427481,11.0458
0.1921387,0.9428711,-0.09399414,2.236641,-9.725191,10.33588
0.293457,0.9450684,-0.1938477,0.7099237,-1.984733,4.816794
0.3613281,0.951416,-0.171875,-2.977099,-0.03053435,-3.160305
0.2470703,0.9455566,-0.1162109,-5.534351,-0.4198473,-4.969466
0.1186523,0.9797363,-0.03930664,-0.6259542,-1.022901,0.1755725
0.1477051,0.9677734,-0.08691406,2.038168,-1.29771,3.778626
0.2263184,0.9523926,-0.1611328,1.496183,-1.038168,2.709924
0.2866211,0.9460449,-0.1699219,-2.534351,-0.9847328,-1.083969
0.2351074,0.956543,-0.09545898,-2.900763,-0.4198473,-2.152672
0.1687012,0.9682617,-0.05957031,-0.1450382,-0.5572519,0.6870229
0.1828613,0.9572754,-0.1147461,1.305344,-0.9923664,2.290076
0.2470703,0.9487305,-0.1660156,-1.221374,-0.6641222,0.1603053
0.2548828,0.9523926,-0.1296387,-2.419847,-0.7251908,-1.549618
0.2124023,0.9677734,-0.08886719,-1.389313,-1.29771,-0.5343512
-eTwist-,-e-,-e-,-e-,-e-,-e-
-sTwist-,-s-,-s-,-s-,-s-,-s-
0.2145996,0.9650879,-0.1210938,-0.9389313,-0.610687,0.2137404
0.2114258,0.9450684,-0.1645508,-2.992366,0.02290076,-0.1603053
0.1933594,0.909668,-0.1577148,-2.641221,-1.007634,0.6030535
0.692627,0.8796387,-0.2167969,-9.687023,-114.0992,-16.74046
0.494873,0.8820801,-0.2907715,-37.57252,-189.4809,-42.61832
-0.03051758,1.023438,-0.1606445,-37.16031,-182.3435,-23.07634
0.04589844,0.9677734,-0.015625,-34.86259,-227.5954,17.25954
0.7409668,1.041992,-0.03320313,-38.70992,-236.8244,-21.85496
-0.06713867,1.069336,0.0234375,-21.15267,-168.8168,13.84733
0.2700195,0.8510742,-0.1103516,-23.74046,-153.1145,7.129771
0.4443359,0.8747559,-0.2695313,-30.0,-213.771,-5.641222
0.3288574,1.03125,-0.2548828,-44.22137,-239.9924,-23.64886
0.6376953,0.9765625,-0.07348633,-27.03053,-230.3053,-23.03817
0.09082031,1.005859,-0.05175781,-27.39695,-225.4733,-16.26718
-0.3203125,1.190186,-0.1271973,0.351145,192.6336,-33.38168
0.1513672,0.7661133,-0.2507324,16.48855,183.6718,37.23664
0.420166,1.298584,0.2407227,46.61069,168.4504,59.22137
0.2675781,1.01001,0.04223633,35.83969,250.1298,31.41985
1.246338,0.7712402,-0.2023926,45.54198,163.9542,-11.62595
-0.1381836,1.110596,0.06054688,62.19847,250.1298,9.885496
0.6044922,0.8601074,-0.7070313,20.16031,250.1298,-73.96947
0.004882813,0.9760742,-0.2324219,34.26717,184.8473,-1.48855
-0.03149414,1.331299,0.1953125,35.45802,249.374,12.49618
0.2741699,0.6010742,-0.215332,16.75573,182.9542,18.22901
0.004150391,1.189209,0.002197266,41.85496,226.8397,22.15267
0.2495117,0.677002,-0.2758789,24.19847,164.2977,3.251908
0.375,0.9091797,-0.451416,19.57252,86.26717,-7.633588
0.2849121,1.032959,-0.1958008,0.5572519,7.519084,-6.21374
0.02612305,0.927002,-0.1520996,-13.69466,4.89313,10.74046
0.2180176,0.9533691,-0.0300293,-3.969466,-0.7633588,10.9771
0.2099609,0.9724121,-0.01513672,6.931298,-1.687023,9.19084
0.2348633,0.9589844,-0.1901855,5.374046,-1.259542,6.801527
0.2358398,0.9362793,-0.2480469,-2.465649,-0.4274809,4.091603
0.2265625,0.9523926,-0.1569824,-7.015267,0.3740458,2.564885
0.2487793,0.970459,-0.0246582,-3.435115,-0.3664122,0.3816794
0.2341309,0.9841309,-0.01635742,2.541985,-1.374046,-0.4045802
0.1975098,0.9709473,-0.1179199,3.770992,-1.648855,0.259542
0.1901855,0.953125,-0.1950684,-1.282443,-0.3969466,1.045802
0.2043457,0.9458008,-0.1369629,-4.984733,-0.6183206,1.068702
0.2155762,0.954834,-0.07666016,-1.442748,-0.610687,0.5496183
0.2226563,0.9714355,-0.08349609,1.282443,-0.6946565,-0.0610687
0.2116699,0.9604492,-0.1433105,1.122137,-0.4732824,0.05343511
0.1987305,0.9528809,-0.1625977,-1.618321,-0.4351145,0.1221374
-eTwist-,-e-,-e-,-e-,-e-,-e-
-sTwist-,-s-,-s-,-s-,-s-,-s-
0.2062988,0.9663086,-0.1047363,-0.9694656,-0.480916,0.3053435
0.2023926,0.9289551,-0.1604004,-3.259542,0.1221374,-0.4732824
0.2954102,0.9179688,-0.1555176,-5.59542,-62.68702,10.83969
0.5092773,0.8840332,-0.1992188,-36.80916,-225.145,-24.18321
-0.0546875,1.251465,0.208252,-27.82443,-236.5114,18.35114
0.3115234,0.7077637,-0.1953125,-49.74046,-219.4122,-16.61069
0.2380371,0.9865723,-0.1826172,-29.59542,-248.1832,-4.305344
0.111084,1.10791,0.1313477,-26.25191,-205.2595,-25.00763
-0.07055664,0.8447266,-0.3537598,-30.22901,-144.2824,8.251908
0.3032227,0.994873,-0.1330566,-18.66412,-158.9695,6.160306
0.3276367,1.007813,-0.05615234,-30.58779,-189.1756,-3.526718
0.326416,0.8840332,-0.07055664,-41.74046,-248.1832,-2.648855
0.2167969,0.9892578,-0.1083984,-36.59542,-248.1832,-19.70229
-0.02636719,1.006836,-0.1074219,-30.12214,-168.3206,-26.48855
-0.1157227,1.010742,-0.2060547,-10.01527,3.801527,-15.83206
-0.4501953,1.057617,-0.05224609,13.21374,150.2061,56.50382
0.3000488,0.8037109,-0.1811523,19.30534,238.8168,5.244275
0.2602539,0.8452148,0.08764648,56.20611,165.5267,55.29771
0.1391602,1.16333,0.3803711,59.38931,230.7252,22.21374
0.7387695,0.7878418,-0.4560547,26.32061,219.5725,-31.58015
0.2346191,0.7177734,-0.3037109,33.99237,149.6947,35.44275
-0.1455078,1.119873,0.02368164,44.41221,250.1069,11.27481
0.2114258,0.5241699,-0.4077148,11.16794,250.1298,-45.78626
-0.09204102,0.8310547,-0.1450195,48.0916,250.1298,14.31298
0.479248,1.167725,-0.1169434,22.99237,141.7863,-32.03053
0.003173828,0.923584,-0.1306152,19.54198,79.45802,4.992366
0.262207,1.016113,-0.2526855,7.671756,19.83969,-1.419847
0.128418,0.925293,-0.2900391,-9.511451,-3.19084,3.618321
0.1142578,0.9995117,-0.09521484,-6.465649,-4.473282,12.75572
0.2304688,0.9677734,-0.02099609,-3.40458,-1.045802,8.839695
0.2565918,0.9658203,-0.03686523,3.19084,-1.923664,4.839694
0.2478027,0.9772949,-0.1159668,4.274809,-1.29771,2.068702
0.232666,0.9331055,-0.2106934,-0.7022901,-0.6946565,-0.3664122
0.2070313,0.9570313,-0.1550293,-4.175572,0.5267176,-0.7480916
0.1987305,0.9680176,-0.09277344,-3.244275,-0.259542,-0.7099237
0.1755371,0.9711914,-0.05932617,0.5648855,-0.5343512,0.3664122
0.1904297,0.9709473,-0.1083984,1.526718,-0.6946565,1.030534
0.1943359,0.965332,-0.1057129,0.4351145,-0.9389313,0.4274809
0.1984863,0.9624023,-0.1398926,-0.519084,-0.8167939,0.6564885
0.2026367,0.9655762,-0.1247559,-1.70229,-0.2442748,0.4580153
0.204834,0.9587402,-0.1010742,-1.29771,-0.2977099,0.1374046
0.2080078,0.9614258,-0.09594727,-0.3816794,-0.6183206,0.09160305
0.2019043,0.9694824,-0.1171875,0.007633588,-0.6717557,0.4122138
-eTwist-,-e-,-e-,-e-,-e-,-e-
-sTwist-,-s-,-s-,-s-,-s-,-s-
0.2121582,0.9592285,-0.1166992,-0.3740458,-1.015267,0.3435115
0.2314453,1.011719,-0.02416992,1.175573,-3.755725,1.335878
0.2253418,0.9724121,-0.1289063,-3.152672,-1.114504,-0.8625955
0.2285156,0.9689941,-0.1408691,-3.587786,-26.76336,-4.694656
0.5959473,0.862793,-0.2631836,-25.47328,-158.2901,-24.03053
0.3395996,0.9768066,-0.2124023,-41.29008,-248.1832,-26.94657
0.05493164,0.9865723,-0.07739258,-41.60305,-217.8092,-51.30534
-0.03295898,0.9174805,0.05639648,-32.94656,-248.1832,-14.09924
-0.1726074,1.139893,0.1157227,-19.79389,-221.313,18.76336
0.3510742,0.8918457,-0.1887207,-38.41221,-248.1832,-4.335878
-0.006591797,0.8967285,-0.2612305,-33.21374,-154.8779,-22.61832
0.1220703,0.8894043,-0.3225098,-25.51145,-145.5496,15.46565
0.3444824,1.051758,-0.002441406,-28.48855,-188.8168,9.297709
0.2749023,1.014648,-0.1647949,-21.96947,55.62595,-102.9771
-1.791016,1.050293,0.04321289,28.20611,136.9695,76.0458
0.2717285,1.115479,0.3486328,32.35878,144.4733,79.64886
0.4936523,0.958252,-0.1933594,29.23664,250.1298,-1.374046
0.3481445,0.717041,-0.359375,42.55725,210.5267,-1.503817
0.1757813,1.163574,-0.02807617,58.45038,250.1298,-10.55725
0.4594727,0.9587402,-0.4350586,26.17557,185.458,-48.30534
-0.08496094,1.20166,0.08520508,38.64122,213.2519,24.0916
0.2675781,0.8933105,-0.2338867,21.14504,250.1298,-21.17557
0.02392578,0.894043,-0.06665039,38.9771,198.0992,16.14504
0.01708984,1.108887,0.04370117,38.48855,250.1298,5.465649
0.3464355,0.748291,-0.3093262,27.45802,161.313,17.80153
0.3981934,1.011719,-0.1647949,20.09924,68.19847,-2.167939
0.166748,1.05249,-0.2050781,-3.083969,7.549618,7.61832
0.1259766,1.001221,-0.009277344,-7.969466,1.877863,14.36641
0.2180176,0.9291992,-0.02880859,-1.610687,-2.793893,11.16794
0.2744141,0.9443359,-0.08203125,5.687023,-3.374046,6.244275
0.3361816,0.9709473,-0.1572266,3.465649,-1.198473,-2.450382
0.2583008,0.9331055,-0.2026367,-4.427481,-0.09923664,-4.679389
0.1503906,0.9555664,-0.1367188,-5.167939,-0.2900764,-1.21374
0.1293945,1.003662,-0.0300293,-0.0610687,0.07633588,4.282443
0.2297363,0.9638672,-0.06445313,2.129771,-0.5572519,2.885496
0.2937012,0.9328613,-0.1616211,0.9694656,-1.030534,-1.145038
0.2412109,0.9567871,-0.1733398,-1.954198,-0.4122138,-2.335878
0.1599121,0.9711914,-0.09960938,-3.038168,-0.1679389,1.0
0.1762695,0.9694824,-0.05493164,-0.5496183,-0.7251908,2.320611
0.2487793,0.9658203,-0.1027832,1.824428,-1.534351,1.099237
0.2580566,0.9526367,-0.1638184,0.08396947,-0.6946565,-1.618321
0.2104492,0.9523926,-0.1474609,-2.450382,-0.3664122,-0.9923664
0.1640625,0.9685059,-0.1135254,-2.320611,-0.2137404,1.129771
-eTwist-,-e-,-e-,-e-,-e-,-e-
-sTwist-,-s-,-s-,-s-,-s-,-s-
0.2128906,0.9587402,-0.1242676,-0.6030535,-0.4122138,0.1374046
0.2177734,0.9614258,-0.182373,-2.40458,-0.351145,-0.4427481
0.2023926,0.8833008,-0.1691895,-4.412214,-10.1374,1.114504
0.7097168,0.8374023,-0.3071289,-19.91603,-141.9313,-21.58779
0.4306641,0.9182129,-0.2434082,-46.50382,-248.1832,-35.45038
-0.1113281,1.014648,-0.04663086,-40.58015,-179.2366,-31.34351
0.1357422,0.9069824,-0.01196289,-31.87023,-247.7557,5.931298
0.2077637,1.015869,0.1464844,-31.55725,-217.4809,-6.412214
0.3652344,0.8293457,-0.1845703,-43.98473,-248.1832,-19.86259
-0.005859375,1.161133,0.04443359,-16.38168,-128.7557,-31.12977
0.07373047,0.8666992,-0.3457031,-25.16031,-160.9008,14.94656
0.3652344,1.014404,-0.1218262,-27.61069,-182.9237,-2.969466
0.2834473,0.9438477,-0.142334,-35.98473,-197.8931,-6.374046
0.3552246,0.9736328,-0.1533203,-38.74046,-242.3817,-22.15267
0.07885742,1.020508,-0.1293945,-29.0,-73.82442,-98.8855
-1.984375,1.163818,0.1623535,8.259542,159.4504,117.6412
0.4152832,0.7927246,0.1430664,30.15267,244.3206,37.67176
0.09692383,0.9655762,-0.0871582,39.51145,250.1298,-23.70992
0.2583008,0.5595703,-0.5441895,9.587787,188.8321,-4.877862
-0.09301758,1.223145,0.1914063,39.09924,215.687,24.64886
0.2695313,0.934082,-0.1401367,20.93893,246.5802,-19.51908
0.04077148,0.8413086,-0.1140137,37.71756,181.7176,31.72519
0.1948242,1.203857,-0.1254883,36.26717,250.1298,-4.725191
0.2529297,0.8679199,-0.1882324,24.98473,152.5878,36.32061
0.01635742,1.212402,0.05761719,30.81679,183.6412,72.48855
0.4399414,0.8374023,-0.3044434,-2.832061,95.94656,-0.1221374
0.4431152,0.7402344,-0.3505859,-1.045802,15.26718,1.19084
0.4189453,1.133057,0.02124023,0.9541985,-4.221374,-1.519084
0.3518066,0.9306641,-0.02099609,-4.870229,-19.48092,-3.824427
0.09472656,0.9458008,-0.1376953,2.419847,2.587786,2.389313
0.2382813,0.979248,-0.1425781,1.694656,-1.221374,3.458015
0.270752,0.949707,-0.1535645,-4.648855,-1.007634,0.870229
0.2692871,0.9455566,-0.1018066,-3.290076,-1.320611,-1.267176
0.2189941,0.9819336,-0.05126953,1.053435,-1.152672,-0.8244275
0.1755371,0.96875,-0.114502,1.954198,-0.8473283,1.366412
0.208252,0.9448242,-0.1606445,-1.854962,-0.389313,1.580153
0.2416992,0.9467773,-0.1289063,-3.022901,-0.2671756,-0.1984733
0.2324219,0.9750977,-0.06274414,-0.4274809,-0.5954198,-0.6259542
0.1975098,0.9667969,-0.09521484,0.5877862,-0.6412213,0.1679389
0.1882324,0.9541016,-0.1279297,0.5725191,0.1221374,1.793893
0.2387695,0.9545898,-0.1472168,-1.083969,-0.5419847,1.274809
0.2434082,0.9624023,-0.1105957,-2.564885,-0.1755725,-0.01526718
0.2351074,0.9665527,-0.09423828,-1.343511,-0.3129771,-0.9160305
-eTwist-,-e-,-e-,-e-,-e-,-e-
-sTwist-,-s-,-s-,-s-,-s-,-s-
0.2167969,0.9611816,-0.1140137,-0.6030535,-0.5572519,0.4122138
0.2185059,0.949707,-0.09985352,-0.4656488,-0.02290076,0.6870229
0.2165527,0.9428711,-0.1376953,-0.3129771,0.8091603,0.1603053
0.6862793,0.9794922,-0.1347656,-7.282443,-118.8015,-19.62595
0.6040039,0.9121094,-0.2497559,-35.92366,-178.9313,-53.06107
0.02563477,1.099121,-0.1999512,-38.01527,-174.1756,-23.31298
-0.00390625,0.9919434,0.03491211,-35.58779,-248.1832,21.27481
0.1105957,1.105957,0.07641602,-36.80153,-231.7328,-0.1755725
-0.02758789,0.888916,-0.01831055,-28.38168,-155.5878,18.51908
0.4016113,0.9047852,-0.3208008,-25.9084,-197.4733,13.8855
0.7507324,0.9445801,-0.08007813,-34.26717,-248.1832,-17.58015
0.220459,0.911377,-0.2722168,-49.46565,-248.1832,-14.96947
0.0847168,1.054443,0.04101563,-37.09924,-229.3282,-2.503817
0.2463379,0.9528809,-0.08666992,-37.79389,-245.3053,-5.633588
0.1125488,0.9919434,-0.1337891,-31.35114,-41.52672,-86.35878
-1.918457,0.9660645,0.01953125,21.54962,146.542,102.2977
0.8303223,1.198975,0.269043,37.83969,250.1298,8.435115
1.999939,0.6303711,-0.203125,29.57252,67.67175,-37.60305
-0.2355957,1.316895,0.2583008,76.32061,250.1298,39.87023
0.3974609,0.7436523,-0.4553223,32.70229,250.1298,-47.69466
0.03076172,1.001953,-0.4362793,42.39695,211.4275,6.08397
0.2619629,1.241455,-0.05566406,24.34351,250.1298,-21.73282
0.02783203,0.7751465,-0.1289063,12.22901,148.9542,12.18321
-0.08911133,1.255127,0.3210449,40.55725,186.4427,43.68702
0.3547363,1.094971,0.1069336,27.39695,91.38931,22.35878
0.3464355,0.8374023,-0.394043,3.312977,25.63359,3.824427
0.2226563,0.9091797,-0.3916016,-5.885496,-4.763359,3.412214
0.1520996,1.045654,-0.05883789,-7.725191,-0.9847328,8.633588
0.1945801,0.9790039,0.0480957,-5.244275,-2.755725,7.740458
0.185791,0.9626465,-0.02172852,4.91603,-2.427481,9.198473
0.2167969,0.9587402,-0.1660156,5.022901,-2.259542,8.343512
0.2299805,0.9526367,-0.2319336,-0.9465649,-0.8167939,6.206107
0.2368164,0.9384766,-0.1708984,-7.015267,0.04580153,4.458015
0.2858887,0.9477539,-0.05029297,-3.587786,-0.1221374,0.6412213
0.2700195,0.9729004,-0.03369141,2.236641,-0.870229,-1.969466
0.2053223,0.9658203,-0.1135254,2.839695,-1.007634,-0.9389313
0.1748047,0.9614258,-0.1789551,-0.3816794,-0.870229,1.694656
0.1984863,0.967041,-0.1420898,-2.992366,-0.0610687,2.396947
0.25,0.953125,-0.07763672,-2.381679,-0.519084,0.259542
0.2470703,0.9594727,-0.05761719,0.9770992,-0.9083969,-1.442748
0.2148438,0.9543457,-0.1325684,1.358779,-1.473282,-0.7938931
0.1726074,0.9621582,-0.1530762,-0.8091603,-0.2900764,1.549618
0.2121582,0.9621582,-0.1162109,-2.236641,-0.1603053,1.908397
-eTwist-,-e-,-e-,-e-,-e-,-e-
-sTwist-,-s-,-s-,-s-,-s-,-s-
0.220459,0.9631348,-0.1230469,-0.351145,-0.519084,0.5114504
0.2275391,0.9506836,-0.104248,-0.3129771,-0.08396947,0.2671756
0.2021484,0.9484863,-0.1525879,-1.580153,-5.984733,2.038168
0.8381348,0.9233398,-0.2822266,-18.12214,-149.1069,-20.59542
0.4655762,0.9484863,-0.2299805,-44.25954,-248.1832,-40.38931
-0.1911621,1.008545,0.004882813,-42.39695,-179.7939,-20.38168
0.2958984,0.748291,-0.4086914,-44.61069,-234.2061,-3.320611
0.1567383,1.133545,0.237793,-27.43511,-237.687,4.51145
0.3779297,0.8505859,-0.03198242,-40.84733,-248.1832,-19.01527
-0.0480957,1.026611,-0.1804199,-28.60305,-188.4733,-21.22901
0.1396484,0.8933105,-0.3164063,-31.83206,-171.4733,2.40458
0.3415527,0.9902344,-0.1904297,-29.74809,-190.6107,-2.007634
0.3046875,0.9943848,-0.07714844,-34.0229,-202.0382,-10.87786
0.3527832,0.8935547,-0.1569824,-39.0229,-241.5191,-22.31298
0.03442383,1.026367,-0.1877441,-18.43511,74.47328,-95.85497
0.1140137,1.022461,-0.008300781,11.45802,117.1756,85.89313
0.4501953,1.177002,0.09765625,26.48855,184.0382,50.01527
0.5214844,0.8415527,-0.2507324,35.80153,243.2824,1.335878
0.5849609,0.9587402,-0.1455078,55.20611,195.2748,-13.48092
0.002441406,1.10791,-0.06689453,53.69466,250.1298,-61.29008
0.1835938,0.6594238,-0.3825684,26.0687,181.1374,-12.1374
-0.002685547,1.349365,0.03271484,39.30534,183.8473,26.98473
0.2319336,0.8308105,-0.2119141,18.9084,250.1298,-15.56489
-0.02905273,0.8212891,-0.1403809,32.45802,208.5343,17.71756
0.3339844,1.047852,0.06860352,28.93893,130.8244,-7.160306
0.2321777,0.9257813,-0.239502,11.24428,48.35878,-2.290076
0.1147461,0.9726563,-0.2287598,4.801527,2.290076,6.824428
0.1396484,0.9536133,-0.2250977,-7.580153,0.3740458,13.90076
0.2553711,0.9284668,-0.1081543,-8.022901,-0.6946565,10.0458
0.2272949,0.9711914,-0.001953125,0.4961832,-1.862595,9.534351
0.2419434,0.9760742,-0.05395508,4.351145,-1.946565,7.572519
0.2336426,0.9333496,-0.2265625,0.7251908,-1.122137,5.572519
0.234375,0.9536133,-0.1845703,-4.183206,-0.09923664,3.48855
0.2497559,0.9523926,-0.08227539,-4.267176,-0.4351145,1.48855
0.2526855,0.9645996,-0.05883789,-0.2748091,-0.778626,-0.3282443
0.2175293,0.9628906,-0.1105957,2.312977,-0.778626,-0.2824428
0.2072754,0.9562988,-0.1601563,0.2977099,-0.8778625,0.4580153
0.1965332,0.9611816,-0.1418457,-2.343511,-0.2671756,1.328244
0.2216797,0.9545898,-0.1025391,-2.167939,-0.4045802,0.9236641
0.2314453,0.9594727,-0.08764648,-0.007633588,-0.6183206,0.04580153
0.2275391,0.9624023,-0.1135254,0.6946565,-0.7328244,-0.4580153
0.2102051,0.9526367,-0.1557617,-0.6564885,-0.610687,0.1221374
0.2009277,0.9602051,-0.1425781,-1.679389,-0.1679389,0.8854962
-eTwist-,-e-,-e-,-e-,-e-,-e-
-sTwist-,-s-,-s-,-s-,-s-,-s-
0.2138672,0.9609375,-0.1088867,-0.4580153,-0.4656488,0.0
0.2246094,0.956543,-0.1118164,-0.1984733,-0.4274809,0.4045802
0.2087402,0.9648438,-0.1523438,-0.3282443,0.7175572,0.3053435
0.3295898,1.004639,-0.1279297,-3.419847,-60.0458,-6.229008
0.4104004,0.9143066,-0.2834473,-35.56488,-221.0229,-23.92366
0.3459473,0.9360352,-0.1906738,-51.10687,-248.1832,-55.03817
0.05566406,1.236572,0.1342773,-34.00763,-238.2595,18.51145
0.3254395,0.7575684,-0.1816406,-49.10687,-210.9084,-24.81679
0.3217773,0.9145508,-0.1125488,-32.51908,-248.1832,-14.55725
0.09033203,1.120117,0.05175781,-25.25191,-145.0534,-49.51908
-0.02685547,0.8310547,-0.404541,-23.00763,-164.6031,8.755725
0.3503418,1.123535,-0.1052246,-21.36641,-162.7557,-1.0
0.3186035,0.9445801,-0.0222168,-33.89313,-212.9847,-2.21374
0.01074219,1.060059,-0.06542969,-6.648855,125.5038,-62.54962
0.1418457,1.052002,0.07958984,21.51908,153.9389,54.48092
0.213623,1.215088,0.2219238,33.9771,156.5878,79.59542
0.5942383,0.9536133,-0.105957,37.10687,250.1298,-14.29008
0.4863281,0.7241211,-0.4118652,39.70992,132.0153,-35.40458
-0.2004395,1.339844,0.002441406,62.40458,250.1298,-1.442748
0.4448242,0.7453613,-0.5288086,16.62595,227.4809,-35.49618
0.04833984,1.110107,-0.01293945,44.57252,196.7939,15.21374
0.2612305,0.8691406,-0.229248,26.21374,215.3206,-1.114504
-0.04125977,0.7966309,-0.3317871,28.53435,185.3053,44.54198
0.2763672,1.098877,-0.1953125,28.56489,222.3588,15.47328
0.3925781,0.751709,-0.2248535,3.687023,98.70229,23.67939
0.5864258,1.145508,-0.04370117,15.27481,15.73282,-18.83969
0.03100586,1.092773,0.05102539,0.1221374,-2.045802,-5.129771
-0.01196289,0.9086914,-0.09594727,-5.374046,-2.114504,9.564885
0.2680664,0.9277344,-0.1418457,1.137405,-5.519084,4.427481
0.3359375,0.9729004,-0.1120605,1.312977,-0.4351145,-1.755725
0.3061523,0.9389648,-0.1403809,-3.175573,-1.083969,-4.748092
0.1459961,0.9501953,-0.1179199,-2.442748,-1.824428,-1.114504
0.1020508,0.9863281,-0.05981445,0.7480916,0.08396947,4.175572
0.2514648,0.9594727,-0.1137695,0.5114504,0.06870229,2.78626
0.3378906,0.9370117,-0.1645508,-2.29771,-0.4274809,-2.351145
0.248291,0.9658203,-0.09033203,-1.099237,-0.07633588,-2.526718
0.1608887,0.9685059,-0.07519531,-0.03053435,-1.465649,1.534351
0.1635742,0.9448242,-0.1364746,0.3282443,-1.59542,3.931298
0.2827148,0.9516602,-0.1450195,-0.778626,-0.6793893,0.2519084
0.2854004,0.9528809,-0.112793,-2.328244,-0.5648855,-2.648855
0.199707,0.9689941,-0.09423828,-1.885496,-0.3969466,-1.19084
0.1608887,0.9553223,-0.08544922,0.2671756,-0.6030535,1.335878
0.2033691,0.9584961,-0.1135254,0.1679389,-0.610687,1.717557
-eTwist-,-e-,-e-,-e-,-e-,-e-
-sTwist-,-s-,-s-,-s-,-s-,-s-
0.2302246,0.9584961,-0.1066895,-0.5114504,-0.6259542,-0.07633588
0.2145996,0.9311523,-0.1577148,-3.78626,0.2366412,-0.2290076
0.201416,0.8828125,-0.152832,-3.59542,-0.5801527,1.282443
0.2275391,0.8916016,-0.1560059,-4.160306,-56.43512,-6.007634
0.6850586,0.8708496,-0.3261719,-34.73283,-240.2595,-30.39695
0.0009765625,1.071533,-0.09741211,-40.15267,-206.458,-24.49618
-0.1101074,0.8989258,0.04663086,-35.93893,-208.9389,-0.2824428
0.354248,0.8903809,-0.1027832,-43.66412,-248.1832,-9.160305
-0.02416992,1.075684,0.1333008,-34.35878,-248.1832,21.37405
0.3701172,0.892334,-0.1530762,-44.48855,-248.1832,-1.427481
0.03076172,0.895752,-0.2148438,-34.25191,-185.2977,7.129771
0.2526855,0.8845215,-0.02661133,-26.61069,-203.9542,8.770992
0.4416504,0.8737793,-0.2641602,-44.52672,-229.0611,-13.59542
0.1101074,1.119141,-0.1376953,-7.91603,169.8626,-120.4733
0.4287109,0.5969238,-0.01464844,14.12977,90.35878,120.7557
0.01855469,1.378662,0.4675293,60.13741,194.5649,25.78626
1.564941,0.7434082,-0.1330566,24.16031,210.1527,-49.42748
0.001220703,0.9584961,-0.2189941,58.91603,169.8473,32.45038
0.1174316,1.168213,-0.01855469,44.98473,250.1298,-6.007634
0.1306152,0.5458984,-0.5595703,18.83206,210.2443,-7.030534
0.009277344,1.19165,-0.1228027,38.74809,241.4198,20.43511
0.3491211,1.01709,0.1206055,25.1145,217.0916,11.80916
0.05834961,0.9523926,0.2023926,34.56488,165.0534,61.1145
0.03027344,1.151123,0.1311035,43.96183,250.1298,-21.35114
0.3725586,0.7617188,-0.296875,17.1145,103.6489,-31.71756
0.1416016,1.198242,-0.2355957,22.0916,50.35878,-10.31298
0.1777344,1.047119,-0.1645508,-5.870229,-15.64886,-3.984733
-0.04248047,0.901123,-0.151123,-14.03817,-2.458015,13.73282
0.2023926,0.9511719,0.02172852,0.4122138,-0.1221374,14.26718
0.4289551,1.001953,-0.03979492,6.832061,-1.793893,-1.045802
0.380127,0.9343262,-0.1525879,2.541985,-0.2290076,-7.175572
0.1376953,0.9523926,-0.2194824,-2.48855,-0.0610687,-3.549618
0.0847168,0.9897461,-0.114502,-5.274809,0.5877862,4.664122
0.1987305,0.9663086,-0.008056641,-2.068702,-1.435114,4.824428
0.2963867,0.9436035,-0.05126953,3.312977,-1.129771,0.2366412
0.3005371,0.9484863,-0.1538086,3.519084,-1.343511,-3.045802
0.1879883,0.951416,-0.1962891,-3.183206,-0.09160305,-0.5648855
0.1635742,0.9484863,-0.1057129,-4.152672,0.05343511,2.503817
0.2446289,0.967041,-0.06469727,-1.068702,-0.3129771,1.236641
0.2729492,0.9650879,-0.08764648,0.1603053,-0.5801527,-1.549618
0.2451172,0.9536133,-0.1147461,-0.3664122,-1.083969,-2.083969
0.1694336,0.9594727,-0.1401367,-1.351145,-0.778626,1.015267
0.1787109,0.9672852,-0.1184082,-1.633588,-0.4427481,2.778626
-eTwist-,-e-,-e-,-e-,-e-,-e-
-sTwist-,-s-,-s-,-s-,-s-,-s-
0.2209473,0.9584961,-0.1049805,-0.8015267,-0.648855,0.351145
0.1962891,0.9265137,-0.1291504,-2.480916,0.5801527,0.4045802
0.2143555,0.9335938,-0.126709,-2.244275,-5.80916,0.5038168
0.916748,0.9082031,-0.3254395,-24.41221,-186.2519,-25.61832
0.0168457,0.9494629,-0.1005859,-38.85496,-215.2595,-28.43511
-0.2045898,0.9099121,-0.09741211,-39.72519,-164.4351,-18.93893
0.3127441,0.8261719,-0.2053223,-44.51145,-248.1832,4.549618
0.1533203,1.137939,0.03491211,-39.82443,-248.1832,-8.702291
0.2751465,0.8649902,-0.2998047,-48.37405,-248.1832,-11.31298
0.1748047,0.954834,-0.2280273,-35.05344,-219.4962,-2.183206
0.09008789,1.059814,-0.1271973,-26.70992,-178.084,18.22137
0.6755371,0.9084473,-0.04125977,-36.29771,-212.8473,-11.27481
0.3312988,0.909668,-0.1901855,-43.08397,-243.7634,-16.35114
0.2185059,1.000732,-0.06274414,-42.29771,-248.1832,-15.96947
0.1303711,0.9650879,-0.1760254,-33.22137,-66.51908,-107.771
-1.984375,1.046143,-0.1455078,9.083969,134.7481,115.3664
1.086426,1.135498,0.204834,29.03817,226.1756,15.64122
1.132568,0.6938477,-0.3012695,28.26718,143.7557,-22.0229
0.0559082,0.9260254,-0.05932617,63.17557,164.5954,45.0458
-0.1218262,1.136719,-0.07666016,58.60305,250.1298,-30.22137
0.2958984,0.4658203,-0.6906738,11.64122,195.5725,-14.56489
0.01586914,1.546631,0.1560059,37.8168,158.1145,33.9313
0.2155762,0.8850098,0.05029297,14.09924,221.5878,-1.633588
-0.04394531,0.8479004,-0.157959,24.42748,196.2595,47.9542
0.4030762,0.9604492,-0.0559082,30.17557,119.5573,-5.91603
0.4401855,0.9545898,-0.2561035,12.48092,39.58015,4.778626
0.454834,0.9638672,-0.3171387,-0.5114504,-15.46565,-4.152672
0.1242676,0.9648438,-0.1096191,-9.664123,-11.21374,-2.977099
0.1418457,0.9091797,-0.04833984,-9.0,-2.412214,1.648855
0.2404785,0.9926758,-0.02001953,2.366412,-2.984733,2.068702
0.2390137,0.9904785,-0.08886719,4.770992,-1.603053,-0.0610687
0.2609863,0.9274902,-0.1894531,-1.312977,-1.091603,-1.89313
0.2150879,0.9394531,-0.1689453,-4.549618,0.480916,-1.038168
0.1865234,0.9714355,-0.07641602,-1.832061,-0.5114504,1.381679
0.199707,0.9790039,-0.0690918,0.09923664,-1.290076,1.687023
0.2480469,0.9423828,-0.09448242,0.6717557,-2.465649,0.1145038
0.2258301,0.949707,-0.1621094,1.618321,-1.847328,-0.5496183
0.1813965,0.9628906,-0.1621094,-1.900763,-0.1526718,1.091603
0.2133789,0.9465332,-0.1223145,-4.824428,-0.5419847,1.114504
0.2416992,0.9553223,-0.08862305,-1.610687,-0.1908397,-1.549618
0.2192383,0.9526367,-0.1157227,0.5496183,-0.5648855,-1.167939
0.1875,0.9470215,-0.159668,-0.648855,-0.9847328,1.389313
0.2043457,0.9667969,-0.1213379,-1.450382,-0.5572519,1.694656
-eTwist-,-e-,-e-,-e-,-e-,-e-
-sTwist-,-s-,-s-,-s-,-s-,-s-
0.2233887,0.9633789,-0.1032715,-0.8473283,-0.480916,0.1908397
0.2011719,0.9570313,-0.1821289,-2.381679,-0.351145,0.2519084
0.2182617,0.8776855,-0.1416016,-5.198473,-22.98473,-2.160305
0.6638184,0.8427734,-0.3312988,-25.52672,-173.0916,-22.32061
0.4541016,0.9660645,-0.1867676,-45.44275,-248.1832,-34.0916
-0.217041,0.9470215,-0.1669922,-45.90076,-148.6718,-31.41985
0.2385254,0.7614746,-0.2399902,-35.15267,-248.1832,-1.503817
0.2807617,1.185547,0.263916,-35.76336,-248.1832,-9.549619
0.2346191,0.8447266,-0.1928711,-46.0687,-248.1832,-33.55725
-0.03540039,0.8691406,-0.1945801,-26.87023,-175.8473,-5.145038
0.2624512,1.063477,-0.1608887,-17.12977,-187.0992,10.1374
0.3435059,0.9199219,-0.1489258,-36.0,-190.3359,-1.89313
0.3520508,0.8273926,-0.2341309,-42.9542,-248.1832,4.427481
0.3146973,1.039307,-0.08642578,-39.57252,-248.1832,-27.12977
-0.348877,1.161865,-0.1367188,-5.572519,189.1832,33.03817
0.2006836,0.8964844,-0.09008789,22.23664,170.5267,82.93893
0.371582,1.309814,0.5222168,49.31298,184.8321,66.30534
0.9926758,0.737793,-0.09057617,35.1145,250.1298,-21.1145
0.3920898,0.7695313,-0.1943359,45.91603,142.8855,-54.13741
-0.1806641,1.24585,-0.2148438,57.67176,250.1298,-15.64886
0.3908691,0.7351074,-0.5046387,21.8855,237.1069,-40.28244
-0.001708984,1.074463,-0.1157227,35.0916,209.458,11.0687
0.2851563,1.098633,-0.142334,23.51908,250.1298,-28.56489
0.05419922,0.8317871,-0.04272461,25.58779,153.8473,12.61832
0.3151855,1.083984,0.04077148,20.77863,77.74809,0.6717557
0.08764648,0.9313965,-0.1467285,6.770992,29.24427,8.068703
0.2683105,0.9597168,-0.0078125,2.458015,-1.450382,5.0
0.2258301,0.942627,-0.1369629,3.305344,-1.564886,3.343511
0.2419434,0.9343262,-0.2290039,-0.3816794,-0.4427481,2.274809
0.2243652,0.9716797,-0.1418457,-3.824427,0.2824428,0.6335878
0.2258301,0.9631348,-0.05810547,-4.045802,-0.5954198,-0.09160305
0.2009277,0.9621582,-0.05151367,0.870229,-0.648855,0.0
0.1977539,0.973877,-0.1130371,2.923664,-0.8778625,0.8091603
0.2084961,0.9570313,-0.1665039,-0.07633588,-0.6183206,0.7022901
0.2172852,0.9584961,-0.1501465,-2.748092,-0.6641222,0.4045802
0.2114258,0.970459,-0.09912109,-2.183206,-0.2748091,-0.05343511
0.2062988,0.9633789,-0.08105469,0.1068702,-0.2900764,-0.1679389
0.2072754,0.9577637,-0.1176758,0.4885496,-0.7175572,0.1145038
0.2041016,0.9570313,-0.1413574,-0.5572519,-0.6564885,0.4351145
0.2089844,0.9614258,-0.1374512,-1.59542,-0.4122138,0.519084
0.2094727,0.963623,-0.1008301,-0.4732824,-0.6259542,0.2442748
0.2023926,0.9611816,-0.1074219,0.0610687,-0.7938931,0.259542
0.2055664,0.9658203,-0.1203613,-0.3587786,-0.389313,0.6946565
-eTwist-,-e-,-e-,-e-,-e-,-e-
-sTwist-,-s-,-s-,-s-,-s-,-s-
0.2155762,0.9592285,-0.1123047,-0.6564885,-0.389313,0.5267176
0.2058105,1.009277,-0.1464844,-1.030534,-0.2671756,-0.3358779
0.1882324,0.907959,-0.1411133,-3.526718,-1.015267,0.2748091
0.2485352,0.9047852,-0.1809082,-4.519084,-32.70229,6.0
0.4584961,0.8703613,-0.3520508,-26.48855,-155.6565,-16.51145
0.4038086,0.9555664,-0.1733398,-40.87786,-248.1832,-26.57252
0.1569824,0.9765625,-0.01635742,-45.33588,-218.771,-62.93893
0.02099609,0.9064941,-0.08081055,-36.0687,-246.0534,-10.61069
0.002685547,1.144287,0.2380371,-24.94657,-238.5267,8.557252
0.3693848,0.8688965,-0.09448242,-42.34351,-248.1832,-13.25954
0.2233887,0.9248047,-0.1918945,-37.58779,-248.1832,-16.19847
-0.04321289,1.00708,-0.1530762,-31.9771,-209.9847,-5.633588
0.1452637,0.9765625,-0.2558594,-31.47328,-162.771,8.717557
0.08422852,1.016113,-0.07348633,-15.33588,58.46565,-31.32061
-0.5009766,1.029297,0.1452637,15.70992,92.52672,92.56489
0.3117676,1.015869,0.3200684,26.22137,233.229,37.45802
1.509277,0.7590332,-0.2756348,30.82443,222.9237,-21.0
0.3537598,0.7702637,-0.3886719,47.37405,166.4427,-31.18321
-0.1230469,1.219971,-0.1918945,54.73283,250.1298,-51.79389
0.3059082,0.6738281,-0.5273438,14.18321,201.1985,-29.92366
0.06567383,1.271729,0.0009765625,44.09924,202.6794,20.78626
0.2331543,1.044434,0.07421875,17.90076,229.771,-12.24428
0.06958008,0.7663574,-0.1635742,26.38931,199.3435,18.45802
0.009765625,1.186768,0.1472168,39.60305,225.7634,22.15267
0.2351074,0.6567383,-0.3032227,27.63359,161.8626,13.60305
0.3796387,0.8920898,-0.3759766,24.74046,75.05344,9.740458
0.3356934,1.026855,-0.2822266,0.5343512,9.40458,1.305344
0.1755371,0.9233398,-0.1821289,-17.12977,3.351145,4.435114
0.2182617,0.9755859,0.04003906,-5.709924,0.1450382,7.435114
0.2094727,1.024414,0.08129883,6.396946,-0.610687,6.282443
0.2155762,0.9396973,-0.1264648,6.839694,-2.312977,6.541985
0.2304688,0.953125,-0.239502,-4.40458,0.2061069,5.526718
0.2399902,0.951416,-0.1010742,-7.870229,0.389313,4.099236
0.2521973,0.9602051,-0.001220703,0.05343511,-0.6641222,0.9160305
0.2595215,0.9597168,-0.08959961,4.374046,-1.160305,-1.152672
0.2084961,0.951416,-0.2038574,0.8015267,-0.6335878,-0.6564885
0.1777344,0.9458008,-0.1623535,-3.854962,-0.2748091,1.145038
0.2033691,0.9650879,-0.07202148,-2.389313,-0.2137404,1.648855
0.239502,0.9587402,-0.05981445,0.3358779,-0.870229,0.1832061
0.2463379,0.9482422,-0.1276855,1.221374,-0.9007633,-0.7328244
0.2158203,0.9516602,-0.1621094,-1.083969,-0.3587786,-0.06870229
0.197998,0.9663086,-0.1333008,-2.709924,0.2061069,1.175573
0.2126465,0.9677734,-0.08007813,-1.503817,-0.4427481,1.030534
-eTwist-,-e-,-e-,-e-,-e-,-e-
-sTwist-,-s-,-s-,-s-,-s-,-s-
0.2277832,0.9621582,-0.1125488,-0.9541985,-0.7251908,0.1374046
0.2241211,1.017822,-0.04882813,1.10687,-2.244275,0.2442748
0.2243652,0.9663086,-0.09741211,-4.068702,-10.72519,2.717557
0.5581055,0.8532715,-0.380127,-23.32825,-140.0763,-22.13741
0.4221191,0.9462891,-0.2480469,-44.32824,-248.1832,-27.46565
-0.112793,0.9208984,-0.09716797,-40.16794,-162.626,-49.9084
-0.1225586,0.9189453,-0.267334,-29.29771,-190.3206,7.755725
0.2226563,0.9921875,-0.1376953,-19.64122,-158.0305,14.40458
0.3342285,0.8347168,-0.1987305,-31.54198,-190.084,5.312977
0.442627,0.904541,-0.03735352,-40.46565,-248.1832,5.793893
0.1726074,0.9450684,-0.1069336,-48.50382,-248.1832,-20.25191
0.07641602,0.942627,-0.1281738,-36.38931,-248.1832,-5.38168
0.09570313,1.020508,-0.1345215,-35.93893,-232.4886,7.030534
0.5722656,0.9833984,-0.0144043,-38.54198,-248.1832,-20.76336
-0.02929688,1.05127,-0.1628418,-25.35114,-76.32825,-83.98473
-1.984375,1.072266,0.1018066,17.31298,127.6718,114.9466
0.3283691,0.9353027,0.3056641,23.99237,192.9008,77.45038
1.692871,0.8010254,-0.09399414,28.21374,147.3893,-2.534351
0.05249023,1.004883,0.2050781,57.58779,232.4504,53.41221
0.5280762,0.9562988,0.02124023,42.57252,238.855,-49.54198
0.06469727,0.8466797,-0.2592773,45.9313,163.7863,27.89313
-0.09741211,1.119141,-0.1872559,45.28244,249.7557,15.8855
0.2854004,0.5532227,-0.5974121,19.17557,250.1298,-42.86259
0.1782227,0.6923828,-0.5263672,18.05343,250.1298,0.1908397
1.823975,1.01416,-0.05444336,10.87023,-33.16031,-42.58779
0.1030273,1.04834,-0.09399414,-22.87786,-103.4657,-33.14504
-0.171875,0.947998,0.01855469,-3.603053,-19.79389,16.41221
0.2568359,0.9799805,-0.1437988,5.022901,2.183206,11.07634
0.2497559,0.9760742,-0.1513672,3.59542,-0.5038168,6.244275
0.2529297,0.9291992,-0.2026367,-2.633588,0.4122138,0.832061
0.237793,0.9523926,-0.1501465,-4.152672,-0.3206107,-1.900763
0.1970215,0.973877,-0.07006836,-2.305344,0.3206107,-2.557252
0.1591797,0.9665527,-0.08032227,0.3969466,-1.29771,-0.7328244
0.1450195,0.9611816,-0.1271973,1.175573,-0.778626,1.114504
0.1743164,0.9699707,-0.1594238,0.351145,-0.6870229,2.152672
0.1992188,0.9575195,-0.1445313,-2.526718,-0.1450382,0.9465649
0.2119141,0.9587402,-0.119873,-2.625954,-0.5725191,-0.7022901
0.1992188,0.9719238,-0.08740234,0.1755725,-1.076336,-0.9541985
0.1704102,0.9782715,-0.1000977,1.229008,-0.5725191,-0.389313
0.170166,0.9570313,-0.1430664,-0.5343512,-0.8473283,0.5114504
0.1914063,0.9450684,-0.1601563,-2.29771,-0.519084,0.480916
0.1953125,0.972168,-0.1147461,-1.587786,-0.3053435,0.1450382
0.1962891,0.9772949,-0.09619141,-0.07633588,-0.351145,-0.3206107
-eTwist-,-e-,-e-,-e-,-e-,-e-
-sTwist-,-s-,-s-,-s-,-s-,-s-
0.1867676,0.9743652,-0.1164551,-0.4427481,-0.7251908,0.5954198
0.2075195,0.9824219,-0.05883789,-0.04580153,-3.671756,0.8396947
0.1972656,0.9772949,-0.1242676,-3.145038,-8.305344,-1.801527
0.4121094,0.9291992,-0.1181641,-11.82443,-121.6336,18.83969
0.4477539,0.9333496,-0.07641602,-29.31298,-212.0534,-16.30534
0.1276855,0.895752,-0.3137207,-39.54962,-248.1832,-20.33588
-0.01855469,1.030518,-0.1103516,-34.37405,-248.1832,-4.022901
-0.05786133,0.9960938,-0.0925293,-37.1832,-248.1832,11.84733
0.1923828,0.9370117,-0.2062988,-40.8855,-249.1832,8.748092
0.2502441,0.9794922,-0.1276855,-40.58015,-234.3435,5.564886
0.2839355,0.9628906,-0.1062012,-38.67176,-214.9924,-1.679389
0.9960938,1.001709,0.1108398,-43.31298,-248.1832,-27.33588
0.05224609,1.023193,-0.1938477,-45.77863,-248.1832,-11.99237
0.3869629,0.9645996,-0.09423828,-35.44275,-245.3664,-16.61069
-1.753174,1.092529,0.2124023,13.18321,126.8473,89.09924
0.1186523,0.934082,0.423584,36.71756,250.1298,61.70229
0.4462891,0.5344238,-0.5073242,12.38168,198.8092,-17.33588
0.07275391,1.098633,-0.1560059,64.90076,188.6183,79.37405
0.01025391,1.202148,0.2473145,50.73283,250.1298,0.7557252
0.4853516,0.6259766,-0.458252,23.34351,169.1679,-16.64886
-0.06811523,1.27832,0.001464844,58.19084,250.1298,1.534351
0.3564453,0.6853027,-0.2717285,15.72519,250.1298,-35.41221
0.1469727,1.247559,-0.1391602,45.13741,178.7328,27.74809
-0.05053711,1.05957,0.2524414,35.26717,250.1298,22.50382
0.239502,0.6364746,-0.2075195,27.48855,210.8473,-2.229008
0.9946289,0.9772949,-0.2001953,14.22137,-50.77099,-40.69466
0.159668,0.9833984,-0.2626953,-16.82443,-43.25954,-62.69466
-0.208252,0.8962402,-0.1816406,-7.694656,-14.68702,-8.748092
0.03369141,1.046143,-0.0222168,-0.5419847,-1.229008,8.053435
0.1560059,0.9780273,-0.006591797,-2.641221,-2.076336,6.076336
0.192627,0.9523926,-0.08984375,1.641221,-0.9312977,6.015267
0.1716309,0.9768066,-0.06787109,-1.381679,-0.4732824,0.5725191
0.1699219,0.9645996,-0.078125,1.564886,-1.374046,1.328244
0.1928711,0.9672852,-0.1547852,1.145038,-0.9083969,0.8091603
0.1984863,0.9560547,-0.1655273,-1.931298,-0.4885496,-0.1068702
0.1938477,0.9575195,-0.1142578,-2.732824,-0.3435115,-0.2977099
0.184082,0.980957,-0.08129883,-0.8549618,-0.7175572,-0.1374046
0.1801758,0.9692383,-0.09863281,0.8167939,-0.9007633,0.5877862
0.1835938,0.9621582,-0.1369629,0.9236641,-0.832061,0.8244275
0.1848145,0.9719238,-0.1594238,-1.0,-0.3969466,0.2442748
0.1967773,0.9641113,-0.1384277,-2.580153,-0.351145,0.2137404
0.1884766,0.9702148,-0.1010742,-1.664122,-0.03816794,0.05343511
0.1811523,0.973877,-0.09423828,-0.04580153,-0.5954198,0.2824428
-eTwist-,-e-,-e-,-e-,-e-,-e-
-sTwist-,-s-,-s-,-s-,-s-,-s-
0.1804199,0.9699707,-0.1259766,-1.007634,-0.8167939,0.1984733
0.2163086,0.9892578,-0.05249023,-0.1526718,-3.40458,1.167939
0.2021484,0.9863281,-0.1206055,-0.9847328,-0.08396947,1.80916
0.4831543,0.9067383,-0.161377,-15.73282,-134.7099,16.91603
0.4172363,0.9360352,-0.114502,-28.29008,-220.5496,-17.13741
0.09375,0.9655762,-0.09228516,-37.32824,-248.1832,-13.35878
-0.03344727,0.972168,-0.05883789,-34.26717,-248.1832,-1.312977
-0.03857422,0.9912109,-0.1269531,-38.73283,-248.1832,13.08397
0.2373047,0.9680176,-0.1635742,-36.79389,-248.1832,6.91603
0.2446289,0.9484863,-0.1623535,-39.21374,-240.4809,5.885496
0.2885742,0.9707031,-0.1298828,-37.92366,-218.4504,-0.9007633
0.2429199,0.963623,-0.1005859,-34.09924,-185.6031,-5.167939
0.2116699,0.9697266,-0.04272461,-29.00763,-199.5038,6.557252
0.5249023,0.9162598,0.002441406,-26.00763,-212.2977,-32.76336
-0.09570313,1.087158,-0.002441406,-0.3053435,1.435114,-90.83206
-1.706543,1.014648,0.007324219,17.62595,128.2519,61.86259
-0.05029297,1.22583,0.1530762,37.83969,215.1985,65.19084
0.3769531,0.7927246,-0.2211914,23.21374,250.1298,-1.854962
0.217041,0.887207,-0.2106934,51.78626,204.2214,17.96947
0.05932617,1.221924,0.2116699,53.67939,250.1298,7.48855
1.67334,0.8537598,-0.007080078,24.67939,222.2977,-27.70992
0.01855469,0.9326172,-0.1459961,43.51145,224.2977,37.55725
0.3359375,1.05127,0.02246094,33.71756,250.1298,-5.312977
0.3413086,0.802002,-0.4084473,27.58779,192.8092,-18.61832
-0.002441406,1.268066,0.2458496,52.91603,205.3588,55.54198
0.5837402,0.7741699,-0.234375,9.435115,63.20611,-11.82443
0.5153809,0.7536621,-0.4946289,-5.305344,-76.48092,-35.94656
0.08398438,1.153564,-0.171875,-9.129771,14.36641,-71.80916
-0.2600098,0.904541,-0.1062012,-7.931298,13.55725,-7.244275
0.1225586,1.032715,0.001953125,-1.160305,2.236641,-1.152672
0.07397461,1.008789,0.04199219,3.961832,-1.435114,6.519084
0.1606445,0.9265137,-0.1538086,3.648855,-0.4122138,8.251908
0.2631836,0.9553223,-0.2397461,0.9847328,-0.2824428,3.671756
0.2541504,0.958252,-0.2099609,-4.725191,1.732824,-0.4656488
0.2175293,0.9650879,-0.0847168,-5.740458,-0.0610687,-1.709924
0.190918,0.9655762,-0.04418945,-1.29771,-1.007634,-0.740458
0.1633301,0.9785156,-0.046875,4.183206,-1.587786,0.4961832
0.1809082,0.9753418,-0.1772461,1.748092,-0.8931297,1.366412
0.1933594,0.9648438,-0.1784668,-3.793893,-0.4503817,0.9236641
0.1962891,0.9521484,-0.1062012,-4.221374,-0.2748091,-0.5877862
0.1867676,0.9807129,-0.05151367,0.1984733,-0.5877862,-0.5725191
0.1699219,0.9736328,-0.09594727,2.381679,-0.9465649,0.5648855
0.1809082,0.9616699,-0.1728516,1.206107,-0.9541985,0.5954198
-eTwist-,-e-,-e-,-e-,-e-,-e-
-sTwist-,-s-,-s-,-s-,-s-,-s-
0.1911621,0.9587402,-0.1245117,-0.4503817,-0.7709923,0.07633588
0.1835938,1.020996,-0.1105957,0.5038168,-0.2442748,-0.1374046
0.1774902,0.9399414,-0.1582031,-4.251908,-1.832061,-0.0610687
0.2219238,0.9460449,-0.1599121,-1.435114,-4.625954,4.259542
0.4462891,0.9111328,-0.2839355,-21.78626,-136.6412,-17.87786
0.6567383,1.027344,-0.05419922,-32.51145,-248.1832,-30.57252
-0.01123047,1.014648,-0.006835938,-40.48855,-248.1832,-17.09924
-0.07495117,0.980957,-0.1599121,-38.80916,-248.1832,-7.503817
-0.02514648,0.9719238,-0.1645508,-32.50382,-248.1832,17.41985
0.2431641,0.9248047,-0.1442871,-39.05344,-237.2748,10.79389
0.5446777,0.9799805,-0.0769043,-29.50382,-205.0763,-18.77099
0.333252,0.939209,-0.07568359,-27.96183,-248.1832,-36.41985
-0.05786133,0.9589844,-0.1638184,-32.59542,-223.5878,-33.84733
0.06640625,0.9353027,-0.1396484,-30.51145,-248.1832,-3.206107
0.02441406,1.056885,-0.175293,-34.78626,-180.9237,-25.77863
-0.7155762,1.050293,-0.02490234,1.862595,144.8626,64.61832
0.1569824,0.7902832,-0.1472168,20.0458,250.1298,47.73283
0.4692383,0.9572754,0.005615234,37.91603,148.1527,99.0
0.07104492,1.218018,0.4555664,45.32061,250.1298,61.62595
1.342285,0.4194336,-0.348877,18.65649,211.771,-8.374045
0.215332,1.102783,-0.04321289,65.90076,250.1298,7.946565
0.5656738,0.9963379,-0.02978516,48.78626,250.1298,-10.12977
0.5273438,0.840332,-0.4719238,40.54962,205.771,-17.12977
-0.08227539,1.184326,-0.09912109,49.50382,250.1298,10.19847
0.361084,0.713623,-0.2600098,8.045801,139.9389,-29.13741
0.7053223,0.8955078,-0.1772461,1.526718,-40.98473,-53.32824
0.005126953,1.153564,-0.1682129,-16.0687,-84.08397,-31.03053
-0.154541,1.042969,0.07470703,-8.106871,-23.81679,-10.29771
-0.2407227,0.9536133,-0.001708984,-3.175573,-0.09160305,16.16794
0.189209,0.9743652,-0.1022949,5.114504,-4.099236,12.27481
0.1999512,0.9821777,-0.1591797,3.442748,-0.6259542,12.93893
0.2758789,0.9316406,-0.2185059,-2.40458,-0.1832061,7.847328
0.2841797,0.9472656,-0.1853027,-4.633588,0.02290076,-1.954198
0.1953125,0.973877,-0.0859375,-3.381679,-0.08396947,-3.442748
0.1628418,0.9758301,-0.07128906,0.519084,-0.7251908,-2.030534
0.1335449,0.9677734,-0.1040039,2.312977,-0.648855,0.7557252
0.1589355,0.9655762,-0.1779785,1.0,-0.6946565,1.427481
0.1813965,0.9597168,-0.1760254,-2.679389,-0.519084,0.8625955
0.1984863,0.9555664,-0.1330566,-3.870229,-0.03053435,-0.04580153
0.1826172,0.9775391,-0.078125,-1.167939,-0.519084,-0.5267176
0.1704102,0.9731445,-0.08618164,1.366412,-0.7099237,-0.1984733
0.1708984,0.9707031,-0.1394043,1.748092,-0.9160305,0.1221374
0.1672363,0.9611816,-0.1789551,-1.236641,-0.6793893,0.8244275
-eTwist-,-e-,-e-,-e-,-e-,-e-
-sTwist-,-s-,-s-,-s-,-s-,-s-
0.1721191,0.963623,-0.1210938,-1.0,-0.6183206,0.09923664
0.1789551,1.019531,-0.0769043,0.519084,-0.7557252,0.03816794
0.1772461,0.9592285,-0.1333008,-3.076336,-0.8625955,0.2213741
0.1635742,0.9267578,-0.1748047,-2.244275,1.221374,-1.946565
0.4472656,0.8754883,-0.08862305,-14.83969,-162.3588,20.34351
0.2905273,0.8874512,-0.154541,-30.0,-238.5267,-21.96183
-0.005126953,0.9694824,-0.2016602,-34.85496,-234.5114,-23.12214
-0.08251953,1.013184,-0.1171875,-34.0458,-229.145,-2.694656
-0.01953125,0.9892578,-0.1003418,-33.49618,-219.771,14.30534
0.314209,0.9328613,-0.1508789,-38.8168,-248.1832,18.74809
0.2893066,0.9208984,-0.07958984,-35.0687,-248.1832,0.4351145
0.08154297,0.947998,-0.1904297,-40.19084,-248.1832,3.717557
0.2319336,0.935791,-0.1374512,-40.30534,-248.1832,-3.381679
0.1542969,0.951416,-0.02148438,-37.98473,-193.5038,-34.28244
-0.5595703,1.110352,0.01245117,-4.664122,149.8931,56.08397
0.1572266,0.8251953,-0.1164551,22.70229,250.1298,35.79389
0.4121094,0.7338867,-0.02319336,35.22137,139.0611,71.58015
0.01196289,1.269775,0.2895508,64.45038,213.5954,33.28244
0.1298828,0.9916992,-0.08251953,43.39695,250.1298,16.69466
0.9841309,0.7849121,-0.345459,34.35115,170.3206,-17.96183
-0.1784668,1.144775,-0.2109375,46.75573,250.1298,-9.053435
0.3427734,0.5009766,-0.6464844,14.0687,250.1298,-29.58779
0.246582,1.10498,-0.1584473,47.48092,249.9695,-1.725191
0.1542969,1.123047,-0.04052734,37.0,250.1298,-18.27481
0.3713379,0.7338867,-0.4140625,17.31298,189.7786,-23.20611
0.6208496,1.120361,-0.1401367,13.14504,-37.9542,-28.12214
-0.03320313,0.9641113,-0.2089844,-16.65649,-25.26718,-50.29771
-0.3891602,0.8833008,-0.1965332,-7.755725,-11.30534,1.10687
0.02270508,1.055176,-0.0378418,0.1679389,-3.854962,22.77863
0.2324219,0.9401855,-0.1806641,-5.320611,-1.007634,18.0916
0.2878418,0.9111328,-0.1188965,-3.007634,-0.3129771,14.61069
0.3078613,0.9614258,-0.09057617,0.6870229,0.3053435,5.328244
0.2851563,0.9914551,-0.09838867,1.648855,-1.496183,-4.839694
0.1625977,0.9575195,-0.1479492,-0.1755725,-0.2366412,-4.122138
0.123291,0.954834,-0.152832,-2.51145,-0.5572519,-0.1908397
0.190918,0.9626465,-0.1542969,-0.832061,-0.4503817,-0.832061
0.1743164,0.9711914,-0.1191406,-1.847328,-0.5038168,-0.4351145
0.1672363,0.9694824,-0.1184082,-0.519084,-0.351145,0.4885496
0.1689453,0.965332,-0.1203613,-0.0610687,-0.8549618,0.6641222
0.1811523,0.9707031,-0.1306152,-0.2366412,-0.7099237,0.5572519
0.185791,0.9672852,-0.1347656,-1.030534,-0.351145,0.2061069
0.1838379,0.96875,-0.1230469,-1.183206,-0.5114504,-0.0610687
0.1755371,0.9694824,-0.1188965,-0.8625955,-0.6183206,0.06870229
-eTwist-,-e-,-e-,-e-,-e-,-e-
-sTwist-,-s-,-s-,-s-,-s-,-s-
0.1767578,0.9694824,-0.1313477,-1.007634,-0.5801527,0.2290076
0.1779785,1.049316,-0.0390625,0.5267176,-0.6870229,0.07633588
0.1958008,0.9411621,-0.1567383,-3.51145,0.04580153,-1.557252
0.404541,0.8552246,-0.1633301,-14.25954,-122.1985,9.053435
0.9382324,0.885498,-0.230957,-36.09924,-248.1832,-42.27481
-0.08569336,0.9941406,-0.1618652,-37.90076,-248.1832,-32.58779
-0.1027832,0.980957,-0.1242676,-34.72519,-243.0534,-11.17557
0.02929688,1.007568,-0.1027832,-30.59542,-228.7099,12.33588
0.157959,0.9736328,-0.1035156,-31.67939,-220.7252,15.71756
0.3647461,0.9360352,-0.07373047,-34.93893,-248.1832,26.32061
0.3269043,1.015381,-0.046875,-34.60305,-247.9313,4.343512
0.4387207,0.9006348,-0.1982422,-38.03817,-248.1832,-20.26718
0.2570801,0.9199219,-0.2583008,-47.16794,-248.1832,-27.54198
-0.05053711,1.017578,-0.09350586,-32.8168,-206.2137,-12.0916
-0.1911621,1.05127,-0.04003906,-12.78626,145.3435,-22.65649
0.09130859,0.9291992,-0.2067871,23.92366,217.9618,23.70992
0.4829102,1.216797,0.1296387,51.83969,185.3969,80.93893
0.6914063,1.048096,0.2956543,36.54962,248.5954,19.41221
0.7260742,0.6032715,-0.5690918,29.29771,185.7634,-6.496183
-0.05126953,1.292969,0.1164551,65.40458,250.1298,37.9313
1.60498,0.8481445,-0.2102051,29.58779,250.1298,-25.87786
0.182373,0.8549805,-0.3269043,37.55725,250.1298,-16.64886
0.1418457,1.119141,-0.0078125,50.94656,250.1298,11.36641
1.148193,0.9436035,-0.07470703,29.56489,202.8702,-29.83206
0.03759766,0.895752,-0.1950684,39.70229,225.1527,21.74046
1.684814,1.101318,0.04467773,19.32825,29.55725,-31.36641
0.1291504,0.8461914,-0.3461914,-16.33588,-72.41222,-26.37405
-0.1259766,1.092041,-0.2404785,-7.946565,31.68702,-64.70229
-0.4394531,1.033936,-0.05615234,0.03816794,6.236641,15.25954
0.1591797,0.9929199,-0.08129883,-0.1984733,-3.51145,22.23664
0.2609863,0.9404297,-0.1328125,-1.694656,0.4274809,19.17557
0.3046875,0.9262695,-0.1193848,-0.961832,2.167939,12.31298
0.3046875,0.9724121,-0.1083984,0.7480916,0.1221374,1.984733
0.2717285,0.9335938,-0.1435547,-0.1374046,-1.48855,-6.015267
0.1442871,0.9580078,-0.159668,-0.4656488,-1.564886,-4.015267
0.1191406,0.9760742,-0.1499023,-1.061069,-0.7938931,-0.4122138
0.137207,0.9619141,-0.1401367,-1.29771,-0.1832061,1.923664
0.1726074,0.9711914,-0.1115723,-1.251908,-0.7251908,2.396947
0.2043457,0.9707031,-0.1027832,-0.3053435,-0.870229,0.6183206
0.2041016,0.9694824,-0.1286621,0.2442748,-1.053435,-1.389313
0.1799316,0.9707031,-0.1369629,-0.3358779,-0.7633588,-1.053435
0.1569824,0.9655762,-0.130127,-1.290076,-0.2061069,0.5954198
0.1730957,0.9697266,-0.1181641,-1.267176,-0.3740458,0.9847328
-eTwist-,-e-,-e-,-e-,-e-,-e-
-sTwist-,-s-,-s-,-s-,-s-,-s-
0.1794434,0.9628906,-0.1328125,-0.5877862,-0.7022901,0.2671756
0.177002,0.979248,-0.1799316,-2.664122,-0.129771,-0.1755725
0.1621094,0.9255371,-0.168457,-3.664122,0.3129771,1.343511
0.1831055,0.8771973,-0.1799316,-5.450382,-69.58015,25.56489
0.8044434,1.013184,-0.1074219,-15.43511,-165.4886,-16.32825
0.4309082,1.007324,-0.08056641,-31.22137,-245.7405,-32.06107
-0.078125,0.9545898,-0.1628418,-38.52672,-248.1832,-12.41985
-0.06445313,0.9680176,-0.1264648,-38.0916,-249.5496,5.778626
0.09741211,1.01001,-0.07885742,-32.96183,-244.6183,10.15267
0.1257324,0.9619141,-0.140625,-34.53435,-234.1298,15.83206
0.3435059,0.9282227,-0.1289063,-38.12977,-248.1832,-10.1145
0.2597656,0.9001465,-0.251709,-48.70229,-248.1832,-9.076336
0.2016602,0.9641113,-0.2470703,-48.85496,-248.1832,-20.25191
-0.1484375,1.057861,-0.3510742,-25.90076,111.1603,-84.98473
0.4294434,0.6396484,-0.3776855,31.96947,250.1298,-8.847328
0.1665039,0.8537598,-0.2600098,50.55725,232.4962,-8.259542
0.2321777,1.057373,-0.1696777,39.32061,250.1298,-68.21374
0.1210938,0.8461914,-0.2285156,40.12214,195.916,22.96947
0.2321777,1.38208,0.2016602,45.62595,250.1298,5.61832
0.2922363,0.7944336,-0.2336426,18.25191,248.6412,-36.48092
-0.02514648,0.9130859,-0.078125,45.56488,188.4427,36.26717
0.236084,1.168457,0.05908203,26.54198,250.1298,-44.50382
0.06469727,0.572998,-0.6518555,8.664123,195.3664,23.1145
-0.09716797,1.168213,0.09155273,45.89313,250.1298,23.55725
0.472168,0.7709961,-0.2792969,6.022901,65.58015,19.03817
0.6032715,0.9082031,-0.3046875,-5.206107,-80.53435,-27.55725
-0.1296387,1.106934,0.109375,-3.854962,-19.54962,-7.778626
-0.203125,0.9714355,-0.09399414,-2.129771,0.1679389,16.13741
0.2407227,0.979248,-0.07519531,1.610687,-0.5954198,11.14504
0.2753906,0.942627,-0.1140137,0.6793893,-1.236641,4.244275
0.2717285,0.9545898,-0.1398926,1.129771,-0.4274809,-2.167939
0.2177734,0.9689941,-0.1584473,-1.335878,0.0,-4.0
0.1455078,0.9724121,-0.1311035,-2.068702,-0.1755725,-2.526718
0.1203613,0.9760742,-0.1135254,-1.229008,-0.4351145,1.412214
0.1418457,0.9770508,-0.107666,-0.480916,-0.6641222,2.351145
0.1845703,0.9741211,-0.1186523,0.5038168,-0.7938931,1.977099
0.2119141,0.9589844,-0.1467285,-0.3358779,-0.7251908,-0.1603053
0.1955566,0.9724121,-0.1428223,-1.099237,-0.5267176,-1.160305
0.1689453,0.9758301,-0.1269531,-1.221374,-0.4274809,-0.3740458
0.15625,0.9743652,-0.1079102,-0.5496183,-0.7633588,0.8396947
0.1738281,0.9655762,-0.109375,0.259542,-0.778626,1.19084
0.1931152,0.9614258,-0.1430664,-0.2442748,-0.5725191,0.3587786
0.1943359,0.9731445,-0.1416016,-0.9312977,-0.4580153,-0.2290076
-eTwist-,-e-,-e-,-e-,-e-,-e-
-sTwist-,-s-,-s-,-s-,-s-,-s-
0.1787109,0.967041,-0.1184082,-1.045802,-0.6793893,0.2442748
0.1733398,0.9499512,-0.1582031,-2.259542,0.3587786,-0.4427481
0.1491699,0.923584,-0.1743164,-2.633588,0.1679389,2.122137
0.2023926,0.8803711,-0.1481934,-6.748092,-91.41985,22.83206
0.3630371,0.949707,-0.2973633,-26.16031,-184.1603,-13.76336
0.08349609,0.9047852,-0.07080078,-35.87786,-248.1832,-12.76336
0.04980469,0.9694824,-0.1594238,-41.61069,-248.1832,-5.641222
-0.1066895,0.9875488,-0.107666,-37.09924,-248.1832,12.61832
0.2121582,0.8862305,-0.2434082,-41.8168,-248.1832,11.8855
0.2878418,1.019043,-0.203125,-36.54962,-248.1832,9.59542
0.3095703,0.9606934,-0.1130371,-43.16794,-248.1832,-1.320611
0.2587891,0.9162598,-0.1303711,-42.38168,-230.7634,-6.664122
0.2692871,0.9746094,-0.04736328,-38.10687,-248.1832,2.748092
0.3747559,0.9892578,0.03076172,-25.70992,-248.1832,-30.65649
-0.078125,0.9631348,-0.04296875,-26.36641,-106.6107,-73.80153
-1.984375,1.266846,0.2910156,35.61069,118.5496,89.20611
0.1921387,0.7912598,0.2175293,26.01527,203.0763,48.51908
0.3486328,0.6635742,-0.3742676,24.80916,221.2748,6.664122
0.1738281,1.159424,0.06616211,54.16794,203.9542,29.25191
0.5148926,0.9453125,-0.1401367,21.0687,250.1298,-49.08397
0.09545898,0.8803711,-0.1936035,47.62595,175.0763,45.07634
0.08276367,1.253906,0.2587891,41.89313,243.9771,30.90076
0.1206055,0.8894043,-0.2099609,29.78626,250.1298,-22.94657
0.1999512,0.7617188,-0.4025879,30.32825,211.542,-24.12214
0.8195801,1.069824,-0.1147461,15.26718,-16.74809,-36.89313
0.05566406,1.011475,-0.2067871,-17.60305,-74.56489,-26.58779
-0.2241211,0.9916992,-0.1293945,-9.076336,27.23664,-41.03817
-0.3381348,0.9384766,-0.1052246,-1.954198,11.45802,17.17557
0.1848145,1.016602,-0.06665039,3.633588,-3.114504,15.26718
0.237793,0.9743652,-0.114502,0.4274809,-1.068702,16.29008
0.2998047,0.9213867,-0.1662598,-0.8625955,0.5419847,11.19847
0.307373,0.9614258,-0.1491699,-1.610687,0.4961832,-0.610687
0.246582,0.965332,-0.1118164,-1.854962,-1.007634,-5.442748
0.1462402,0.9685059,-0.1064453,-1.091603,-0.5114504,-3.496183
0.1135254,0.987793,-0.1066895,0.9236641,-0.2061069,1.061069
0.1520996,0.9594727,-0.1394043,0.1832061,-0.5954198,2.045802
0.1862793,0.9580078,-0.1574707,-1.343511,-0.610687,1.603053
0.2058105,0.9619141,-0.1320801,-1.473282,-0.648855,0.2213741
0.1918945,0.96875,-0.1027832,-1.328244,-0.4045802,-0.740458
0.1818848,0.96875,-0.1381836,-1.839695,-0.5038168,0.3435115
0.1821289,0.9663086,-0.1103516,-1.320611,-0.4580153,0.1755725
0.1782227,0.9682617,-0.1159668,-0.4198473,-0.8549618,0.09160305
0.1704102,0.9672852,-0.1328125,0.3816794,-0.8854962,0.1526718
-eTwist-,-e-,-e-,-e-,-e-,-e-
-sTwist-,-s-,-s-,-s-,-s-,-s-
0.1750488,0.9643555,-0.1213379,-0.5877862,-0.4580153,0.259542
0.1708984,0.9667969,-0.1713867,-2.496183,-0.1755725,-0.3816794
0.166748,0.9216309,-0.1611328,-3.870229,-4.961832,0.5343512
0.2502441,0.8254395,-0.1345215,-13.0229,-120.229,35.9771
0.7460938,0.9287109,-0.2653809,-29.58015,-238.6412,-19.0687
0.004150391,1.07373,-0.02172852,-30.46565,-248.1832,-25.19084
-0.08325195,0.9682617,-0.07080078,-38.75573,-248.1832,-7.374046
-0.05688477,0.9606934,-0.1738281,-39.12214,-248.1832,9.778625
0.09082031,0.9921875,-0.1108398,-33.66412,-246.5343,13.25954
0.1879883,0.9621582,-0.1474609,-32.8855,-246.084,26.69466
0.3642578,0.9064941,-0.2243652,-38.03053,-248.1832,-4.122138
0.4418945,0.8913574,-0.2731934,-48.00763,-248.1832,-9.145039
0.03393555,1.001221,-0.1757813,-39.74046,-237.0229,-4.015267
0.8352051,1.032715,-0.05249023,-39.33588,-248.1832,-21.83206
-0.09155273,0.9941406,0.06958008,-24.15267,-48.93893,-103.2824
-1.984375,0.9870605,-0.09887695,23.16031,128.3282,90.61832
0.2841797,1.236572,0.2595215,30.91603,177.6031,68.32061
0.8374023,0.8312988,-0.1574707,23.89313,248.8702,-1.908397
0.1513672,0.9909668,0.002685547,61.05344,214.374,32.86259
0.1193848,1.011475,0.1083984,47.29771,250.1298,-6.633588
0.3955078,0.7072754,-0.4365234,33.10687,235.8473,-16.29771
0.06030273,1.10376,-0.2111816,51.66412,250.1298,15.58015
0.5395508,0.9562988,-0.1723633,25.87023,247.8244,-59.43512
0.03100586,1.031982,-0.2558594,37.83969,212.2366,24.33588
0.4892578,1.196289,-0.2121582,9.358779,55.8855,-24.74046
0.2956543,0.8276367,-0.4067383,-14.0916,-61.54962,-40.93893
-0.09692383,1.070557,-0.1520996,-11.08397,-68.68702,-47.80153
-0.5019531,1.000977,0.07128906,-5.763359,-12.03817,21.16794
0.09301758,0.9094238,-0.1169434,-4.259542,-6.137404,18.89313
0.185791,0.9221191,-0.189209,-0.1755725,-2.748092,17.9084
0.2678223,0.9453125,-0.1706543,-0.2290076,-0.259542,18.83969
0.3144531,0.9580078,-0.1218262,-2.351145,0.7480916,9.534351
0.298584,0.9570313,-0.1193848,-2.740458,-1.076336,-4.122138
0.1733398,0.972168,-0.1069336,0.7022901,0.0610687,-5.412214
0.1345215,0.9902344,-0.1171875,1.564886,-0.6030535,-2.251908
0.1196289,0.9665527,-0.1560059,-0.5343512,-0.2213741,1.19084
0.157959,0.9599609,-0.1577148,-1.816794,-0.389313,2.10687
0.1870117,0.9707031,-0.1240234,-1.763359,-0.2671756,1.167939
0.2006836,0.9626465,-0.1066895,-0.870229,-0.8015267,-0.3129771
0.1931152,0.967041,-0.1113281,0.4503817,-0.870229,-1.114504
0.1621094,0.9689941,-0.1342773,0.3435115,-0.8396947,-0.4732824
0.1625977,0.9660645,-0.1616211,-0.7022901,-0.480916,0.480916
0.1672363,0.972168,-0.1369629,-1.541985,-0.6793893,0.6183206
-eTwist-,-e-,-e-,-e-,-e-,-e-
-sTwist-,-s-,-s-,-s-,-s-,-s-
0.1647949,0.9680176,-0.109375,-0.6030535,-0.3358779,0.1374046
0.1687012,0.9521484,-0.1706543,-3.40458,0.1450382,-0.1908397
0.1809082,0.9699707,-0.1157227,-2.129771,-0.1068702,-1.763359
0.4431152,0.8972168,-0.1547852,-13.67939,-129.2748,-1.671756
0.387207,0.9294434,-0.1813965,-30.9771,-231.0534,-33.40458
-0.1020508,0.9724121,-0.1242676,-31.58015,-216.3512,-21.49618
0.06689453,0.9296875,-0.1408691,-37.96183,-248.1832,-13.64886
-0.0871582,0.9970703,-0.1655273,-35.54198,-239.4275,6.954198
0.2580566,0.9787598,-0.2429199,-36.35115,-246.3893,-0.4274809
0.296875,0.9689941,-0.1469727,-35.83206,-248.1832,10.20611
0.1230469,1.056641,-0.08032227,-31.34351,-232.3053,15.46565
1.2146,0.9716797,-0.1455078,-48.03817,-248.1832,-21.10687
-0.04248047,0.9968262,-0.1171875,-38.56488,-248.1832,13.32061
0.4074707,0.8620605,-0.06860352,-47.0687,-248.1832,-28.12977
-0.1682129,1.055176,-0.09228516,-22.47328,-54.87023,-65.39695
-1.308105,1.10376,0.1611328,19.16031,114.1985,80.29008
0.111084,1.027588,0.2990723,27.16794,231.7328,64.9771
0.3679199,0.5559082,-0.3244629,17.48855,162.5954,14.61069
0.1184082,1.195801,0.2092285,63.93893,213.7023,15.30534
-0.02099609,1.188721,0.03173828,45.92366,237.2366,-16.75573
-0.0009765625,0.7675781,-0.185791,19.41985,250.1298,-11.06107
0.002441406,0.9277344,-0.2353516,37.56488,200.5802,26.49618
-0.1342773,1.05542,-0.0847168,32.89313,250.1298,-53.1145
0.2519531,0.5483398,-0.6516113,15.30534,196.0763,32.96947
0.6474609,1.185791,-0.2524414,13.67939,7.748092,-17.06107
0.02392578,0.9313965,-0.3217773,-16.80153,-67.0229,-7.603054
-0.1972656,0.9658203,-0.1955566,-9.832061,19.19084,-16.87786
-0.06616211,0.9084473,-0.177002,-2.969466,4.129771,19.03817
0.2629395,1.041504,-0.09008789,1.793893,2.618321,17.0916
0.2897949,0.9641113,-0.07275391,-0.351145,0.8778625,10.77099
0.3037109,0.9318848,-0.1313477,-0.3206107,0.7099237,-0.0610687
0.2521973,0.9580078,-0.1569824,0.9770992,-2.419847,-5.717557
0.1286621,0.9880371,-0.1467285,-0.6717557,-1.221374,-2.236641
0.1035156,0.9694824,-0.1320801,-2.160305,-0.1832061,2.030534
0.1591797,0.9602051,-0.109375,-2.427481,-0.4351145,3.183206
0.2160645,0.9606934,-0.1069336,0.1221374,-0.480916,0.7709923
0.2050781,0.9562988,-0.1474609,0.4961832,-0.9694656,-1.610687
0.1621094,0.9714355,-0.1560059,-0.2824428,-0.5038168,-0.7480916
0.1408691,0.9819336,-0.1347656,-2.045802,-0.3206107,1.053435
0.1696777,0.9614258,-0.1079102,-1.923664,-0.259542,1.473282
0.2080078,0.9631348,-0.1108398,0.06870229,-0.5954198,0.1145038
0.1943359,0.9755859,-0.1394043,0.9847328,-0.7709923,-0.8396947
0.1740723,0.9729004,-0.1489258,-0.5801527,-0.7099237,0.7251908
-eTwist-,-e-,-e-,-e-,-e-,-e-
-sTwist-,-s-,-s-,-s-,-s-,-s-
0.177002,0.9648438,-0.1257324,-0.7099237,-0.5725191,0.3358779
0.1740723,0.9472656,-0.1306152,-2.076336,-0.04580153,-0.09923664
0.1574707,0.9260254,-0.1923828,-2.068702,1.167939,0.740458
0.1853027,0.9492188,-0.1506348,-0.3053435,-3.335878,-1.801527
0.5153809,0.9433594,-0.1262207,-12.9542,-148.2443,-20.17557
0.05541992,0.9013672,-0.05126953,-32.74046,-248.4122,-37.30534
-0.08837891,0.9572754,-0.1953125,-36.28244,-237.8397,-23.42748
-0.09472656,1.043457,-0.1418457,-33.91603,-234.9237,-4.160306
0.08935547,0.9404297,-0.09594727,-38.03817,-248.1832,22.41985
0.2866211,1.048096,-0.1135254,-36.67176,-248.1832,-1.816794
0.1643066,0.9311523,-0.1291504,-35.70992,-248.1832,0.8167939
0.1191406,0.9865723,-0.1708984,-35.68702,-248.1832,23.19847
0.7536621,0.8706055,-0.07421875,-47.9084,-248.1832,-25.22137
-0.08666992,1.010498,-0.1447754,-29.25954,-116.7328,-63.9771
-1.984375,1.111816,0.1853027,18.63359,138.2443,108.5496
0.2429199,0.8586426,0.3413086,20.32061,250.1298,44.31298
0.5859375,0.6049805,-0.4018555,22.63359,156.5954,4.740458
0.166748,1.299316,0.2531738,60.46565,231.8855,9.763359
0.4689941,0.8544922,-0.07055664,48.80916,250.1298,-6.862596
0.7409668,0.8432617,-0.394043,44.79389,174.542,-20.45038
0.008300781,1.167725,-0.1843262,50.33588,250.1298,-20.82443
0.2924805,0.7553711,-0.3112793,22.75573,241.0229,-50.87786
0.126709,1.156738,-0.02172852,35.83206,145.626,-16.56489
-0.2641602,1.274658,0.1989746,41.48855,250.1298,-14.54198
0.1931152,0.6665039,-0.3598633,15.54962,190.5343,17.22901
0.411377,0.9787598,-0.282959,9.358779,6.977099,-28.79389
-0.05883789,1.025879,-0.1325684,-10.25191,-79.06107,-4.274809
-0.03271484,0.9204102,-0.1645508,-2.19084,0.6717557,22.32061
0.2475586,1.060547,-0.07543945,1.366412,0.1374046,25.17557
0.3059082,0.935791,-0.1057129,-2.450382,1.610687,20.03053
0.326416,0.9145508,-0.1262207,-1.725191,2.572519,9.954199
0.3579102,0.9665527,-0.114502,1.458015,-2.19084,-6.969466
0.1647949,0.9689941,-0.1330566,1.0,0.2519084,-6.526718
0.1369629,0.9697266,-0.1721191,-1.358779,0.09160305,-4.541985
0.09912109,0.9707031,-0.1293945,-2.305344,0.2061069,1.396947
0.1408691,0.9763184,-0.09570313,-0.9847328,-0.1832061,2.641221
0.2001953,0.9631348,-0.09814453,0.3664122,-0.6030535,1.442748
0.208252,0.9645996,-0.1325684,0.8854962,-0.7328244,-0.2137404
0.1879883,0.9599609,-0.1713867,-1.244275,-0.4961832,-0.7022901
0.1677246,0.963623,-0.1481934,-2.473282,-0.259542,-0.1908397
0.159668,0.9794922,-0.1000977,-1.038168,-0.5725191,0.6259542
0.1787109,0.9709473,-0.09692383,0.5343512,-0.8167939,0.6717557
0.1843262,0.9624023,-0.1459961,0.4351145,-0.7862596,0.0
-eTwist-,-e-,-e-,-e-,-e-,-e-
-sTwist-,-s-,-s-,-s-,-s-,-s-
0.1855469,0.9663086,-0.1337891,-0.7633588,-0.6641222,0.3435115
0.1713867,0.9719238,-0.1889648,-2.770992,-0.05343511,-0.3740458
0.1682129,0.9240723,-0.1650391,-3.603053,-0.9007633,0.8167939
0.1757813,0.9040527,-0.1809082,-2.099237,-0.1832061,-2.175573
0.7939453,0.9321289,-0.1184082,-15.29771,-157.1221,-26.51908
0.3547363,0.9299316,-0.1694336,-36.84733,-248.1832,-32.59542
-0.1015625,0.9716797,-0.1064453,-36.10687,-248.1832,-25.0916
-0.09741211,1.019775,-0.1027832,-35.91603,-245.7786,-6.030534
-0.04345703,0.9726563,-0.07226563,-34.80916,-240.313,9.297709
0.1130371,0.9453125,-0.1157227,-33.75573,-250.0687,19.18321
0.458252,0.9213867,-0.2497559,-37.46565,-248.1832,-1.236641
-0.01220703,1.069824,0.03808594,-34.36641,-248.1832,5.358778
0.2287598,0.8474121,-0.2470703,-52.32061,-248.1832,-11.79389
0.1218262,0.9799805,-0.2946777,-42.38931,-161.2366,-39.61069
-0.7524414,1.181396,0.3217773,14.96183,169.4122,82.03817
0.1967773,0.923584,0.3417969,24.65649,250.1298,49.42748
0.5214844,0.552002,-0.3935547,12.32824,144.9542,-5.053435
0.06811523,1.195068,0.1931152,63.16794,224.0153,30.25191
0.4221191,0.9731445,0.05078125,54.78626,250.1298,17.29771
0.8991699,0.6335449,-0.5551758,32.09924,187.0153,-24.37405
-0.1025391,1.151611,-0.06982422,53.62595,250.1298,-8.549619
0.3977051,0.791748,-0.5515137,13.55725,250.1298,-46.24427
0.2583008,1.060791,-0.3449707,29.62595,231.855,-39.56488
-0.1611328,1.299316,0.2456055,49.30534,250.1298,0.0610687
0.2717285,0.7565918,-0.3642578,10.77863,158.1145,32.20611
1.304443,0.904541,-0.2731934,9.183207,-22.26718,-20.25191
0.01757813,1.05127,-0.1330566,-8.068703,-78.14503,-9.916031
-0.1691895,1.043701,0.06811523,-3.839695,-13.96183,9.519084
0.01660156,0.8654785,-0.1992188,-8.091603,0.8625955,24.08397
0.2570801,0.9714355,-0.1391602,-0.8091603,1.519084,22.00763
0.3210449,0.9143066,-0.1315918,-1.603053,1.496183,10.0687
0.3405762,0.9812012,-0.1015625,1.618321,-2.21374,-5.89313
0.1625977,0.9641113,-0.1396484,0.832061,-0.5267176,-4.977099
0.1132813,0.9677734,-0.1711426,-1.694656,-0.3816794,-0.4198473
0.1279297,0.972168,-0.135498,-2.480916,-0.389313,2.274809
0.1791992,0.9645996,-0.09057617,-0.832061,-0.4351145,1.78626
0.2106934,0.9621582,-0.1213379,0.7862596,-0.9465649,-0.1526718
0.1948242,0.9714355,-0.1413574,0.8854962,-0.9770992,-0.9083969
0.1618652,0.9689941,-0.1518555,-1.503817,-0.2442748,-0.1603053
0.1599121,0.9528809,-0.109375,-2.519084,0.09160305,0.778626
0.1865234,0.9692383,-0.09863281,-0.7099237,-0.5038168,0.5801527
0.1906738,0.9682617,-0.1130371,0.832061,-0.8931297,-0.2900764
0.1799316,0.9682617,-0.1408691,0.3435115,-0.351145,-0.3664122
-eTwist-,-e-,-e-,-e-,-e-,-e-
-sTwist-,-s-,-s-,-s-,-s-,-s-
0.1779785,0.96875,-0.1279297,-0.778626,-0.6335878,0.4198473
0.1806641,0.9577637,-0.1645508,-2.854962,-0.129771,-0.1679389
0.1694336,0.9243164,-0.1767578,-3.129771,-5.969466,0.9923664
0.2155762,0.8115234,-0.1708984,-13.19847,-101.2824,-14.58779
0.3425293,0.9042969,-0.2458496,-32.13741,-248.1832,-29.19084
-0.03491211,1.116699,0.01245117,-32.0229,-248.1832,-26.9771
-0.078125,1.043457,-0.03540039,-34.0916,-248.1832,-5.29771
-0.05395508,0.9404297,-0.1040039,-35.9313,-246.5802,10.92366
0.0847168,0.9301758,-0.1669922,-32.63359,-235.6794,15.33588
0.331543,0.9172363,-0.237793,-39.55725,-248.1832,1.732824
0.08789063,1.090088,-0.2050781,-39.05344,-248.1832,5.0
0.1628418,0.8720703,-0.1088867,-48.52672,-248.1832,-7.229008
0.1635742,0.9462891,-0.07397461,-45.93893,-248.1832,-1.465649
0.04077148,0.9299316,-0.1315918,-49.50382,-248.1832,-18.92366
-0.1650391,1.018311,-0.1271973,-25.12977,-82.45038,-72.98473
-1.586426,1.124756,0.2160645,27.21374,110.2519,84.64886
0.140625,1.115723,0.3015137,30.21374,202.5802,65.77863
0.3964844,0.5561523,-0.3220215,14.80916,214.1145,-5.770992
0.1086426,1.027832,-0.1784668,55.29771,232.2901,13.48092
0.4052734,1.10791,-0.004882813,40.9084,208.6794,-5.442748
0.07958984,0.7851563,-0.2412109,35.30534,238.6031,-17.41985
0.9736328,0.7485352,-0.1630859,26.20611,204.3817,-29.99237
-0.05322266,1.128418,-0.2414551,44.0229,250.1298,2.244275
0.21875,1.173584,-0.08984375,34.86259,250.1298,-31.76336
0.3498535,0.7609863,-0.3554688,22.64122,191.5343,45.32061
0.9262695,1.114258,0.1274414,16.01527,-23.91603,-22.52672
0.08251953,0.9262695,-0.1721191,-19.07634,-96.48092,-25.10687
-0.1608887,1.007568,0.06396484,-0.4580153,-16.79389,-0.5801527
-0.08569336,0.967041,-0.08032227,1.305344,-0.7633588,23.27481
0.2895508,0.9274902,-0.1801758,0.1908397,-0.351145,13.38931
0.2851563,0.9873047,-0.1428223,0.9083969,-1.396947,4.0
0.2758789,0.9587402,-0.1398926,-1.328244,-0.8473283,-4.541985
0.1516113,0.9724121,-0.137207,-1.442748,-0.778626,-3.274809
0.1162109,0.9899902,-0.1193848,-0.1526718,-1.076336,-0.1526718
0.1164551,0.9692383,-0.1169434,-0.6564885,-0.3129771,2.816794
0.1870117,0.9599609,-0.1230469,-0.7480916,-0.6030535,2.091603
0.2246094,0.9631348,-0.1237793,-0.6793893,-0.8473283,-0.9312977
0.184082,0.9709473,-0.1315918,-0.6564885,-0.4045802,-1.526718
0.1489258,0.970459,-0.130127,-0.9694656,-0.3282443,0.2290076
0.151123,0.9580078,-0.1262207,-1.19084,-0.351145,1.335878
0.1850586,0.9628906,-0.1179199,-0.6335878,-0.5725191,0.7709923
0.1931152,0.9655762,-0.1298828,-0.2900764,-0.7709923,-0.7557252
0.1655273,0.9650879,-0.1455078,-0.5343512,-0.7709923,-0.6564885
-eTwist-,-e-,-e-,-e-,-e-,-e-
-sTwist-,-s-,-s-,-s-,-s-,-s-
0.1789551,0.9677734,-0.1293945,-0.8549618,-0.351145,0.389313
0.1772461,0.9763184,-0.1386719,-2.51145,0.03053435,-0.4656488
0.1674805,0.9221191,-0.140625,-3.946565,-0.4961832,0.8931297
0.2102051,0.9311523,-0.2116699,-2.160305,-4.89313,6.099236
0.4865723,0.9418945,-0.2416992,-18.77863,-136.5496,-27.99237
0.375,0.9519043,-0.01782227,-31.0458,-248.1832,-29.21374
-0.07519531,0.9506836,-0.1240234,-37.19084,-248.1832,-11.64122
-0.04736328,0.9643555,-0.1677246,-40.36641,-248.1832,3.068702
0.04248047,1.045166,-0.09594727,-36.53435,-248.1832,13.27481
0.1442871,0.9641113,-0.1625977,-33.75573,-249.3053,15.19847
0.2736816,0.947998,-0.2429199,-36.83206,-239.8168,12.31298
0.2944336,0.9648438,-0.1569824,-36.38931,-217.9847,12.51908
0.7321777,0.9418945,-0.03613281,-37.40458,-248.1832,-27.61069
-0.1955566,1.003906,-0.07861328,-26.52672,65.46565,-111.2137
0.3764648,1.016357,-0.2680664,24.92366,140.084,60.9771
0.2971191,1.341553,0.4831543,53.20611,182.1069,60.1145
0.5566406,0.7949219,-0.08154297,23.27481,224.6947,-8.633588
0.2885742,0.7336426,-0.2932129,45.51145,185.7328,-3.374046
-0.05883789,1.268555,0.01977539,52.67176,250.1298,6.465649
0.4121094,0.623291,-0.5395508,17.22137,244.0153,-29.73282
0.3874512,1.116943,-0.3967285,39.77099,250.1298,-19.0
0.1547852,1.100586,0.04785156,43.69466,250.1298,-18.67175
0.4370117,0.9038086,-0.3278809,24.01527,250.1298,-46.25191
0.1813965,0.7109375,-0.4042969,24.44275,193.6565,19.80153
1.02832,1.116943,-0.1345215,9.335877,-25.87786,-26.16794
0.01171875,0.9382324,-0.2402344,-17.18321,-85.64886,-26.27481
-0.1928711,1.023193,0.07202148,-8.38168,-20.07634,6.312977
-0.1040039,1.003174,-0.06982422,-0.7480916,2.21374,26.96947
0.2814941,0.9516602,-0.1154785,-2.167939,0.8167939,23.62595
0.3088379,0.9213867,-0.1281738,-1.824428,0.8091603,16.68702
0.3215332,0.9453125,-0.1279297,1.083969,-0.3358779,-1.038168
0.2080078,0.9682617,-0.1418457,0.6030535,-1.061069,-5.984733
0.1333008,0.9899902,-0.1381836,-1.007634,-0.3053435,-2.885496
0.1103516,0.9814453,-0.1074219,-1.709924,0.03053435,1.175573
0.1582031,0.9633789,-0.1083984,-1.519084,-0.3358779,2.496183
0.199707,0.954834,-0.1223145,-0.2137404,-0.6335878,1.183206
0.2133789,0.9614258,-0.1499023,0.2671756,-0.4122138,-0.6183206
0.1901855,0.9743652,-0.1384277,-0.6183206,-0.2748091,-0.9160305
0.1618652,0.9692383,-0.1259766,-1.549618,-0.2900764,-0.06870229
0.1669922,0.9638672,-0.1079102,-0.6793893,-0.1832061,0.778626
0.1816406,0.9650879,-0.109375,-0.007633588,-0.610687,0.7480916
0.1860352,0.9645996,-0.1450195,-0.5267176,-0.6564885,0.3435115
0.1762695,0.9631348,-0.1459961,-1.343511,-0.4427481,-0.1145038
-eTwist-,-e-,-e-,-e-,-e-,-e-
-sTwist-,-s-,-s-,-s-,-s-,-s-
0.1799316,0.9672852,-0.1245117,-0.6412213,-0.6183206,0.2824428
0.1787109,0.9604492,-0.1843262,-2.19084,0.07633588,-0.389313
0.1650391,0.9125977,-0.1711426,-3.419847,-3.748092,2.312977
-0.05004883,1.054199,-0.06176758,-37.0229,-248.1832,-0.1450382
-0.01367188,0.9650879,-0.1362305,-39.9084,-248.1832,10.65649
0.08764648,0.958252,-0.1342773,-33.63359,-248.1832,15.70229
0.2612305,0.9941406,-0.1696777,-34.71756,-243.3282,13.42748
0.3444824,0.9541016,-0.1794434,-39.83206,-242.8779,3.21374
0.670166,0.9082031,-0.171875,-44.92366,-248.1832,-28.45802
-0.0002441406,1.103271,-0.138916,-39.27481,-246.0687,-7.59542
0.380127,0.9829102,0.01074219,-40.77099,-248.1832,-27.80153
0.1286621,0.9147949,-0.0324707,-45.12214,-248.1832,-32.01527
-0.03076172,1.005371,-0.09106445,-40.00763,-246.6565,-12.34351
0.2907715,0.9208984,-0.3417969,-42.84733,-234.0382,-30.0
-0.04931641,1.053223,-0.168457,-20.9084,-175.4962,-17.70229
-0.7143555,1.071045,0.4204102,18.98473,143.145,51.32061
0.2319336,0.6608887,-0.3720703,5.885496,250.1298,44.87786
0.4020996,0.9355469,-0.1164551,36.78626,187.8626,77.09924
0.4816895,1.158691,0.3198242,43.69466,250.1298,24.66412
0.770752,0.6286621,-0.4736328,25.67939,240.8321,-18.05343
0.3654785,0.7124023,-0.4123535,45.54198,230.9771,-18.47328
0.06860352,0.8244629,-0.3413086,33.40458,229.0382,-29.9542
-0.006347656,1.079346,0.002685547,48.8168,224.9924,14.42748
0.1289063,0.9245605,-0.2141113,24.08397,249.3359,-40.94656
-0.104248,0.8928223,-0.09765625,38.08397,221.6107,17.1145
0.2954102,0.9333496,-0.2102051,7.877862,63.28244,-12.67939
0.2617188,0.9899902,-0.2253418,-4.946565,-36.8168,-27.32061
-0.107666,1.026367,-0.1486816,-11.84733,-53.59542,-11.64122
-0.07397461,0.984375,-0.1425781,-13.32061,-17.05343,-0.2748091
-0.06616211,1.037354,0.006835938,6.496183,-3.648855,33.9771
0.2629395,0.9592285,-0.1154785,-2.366412,-2.900763,31.40458
0.331543,0.887207,-0.2060547,-2.183206,3.335878,26.03817
0.3378906,0.9611816,-0.1472168,-2.10687,4.015267,4.061069
0.3198242,0.9602051,-0.09008789,-0.1908397,2.603053,-7.206107
0.2524414,0.9790039,-0.09741211,0.8015267,-0.648855,-9.938931
0.1320801,0.9794922,-0.1193848,0.480916,-0.7175572,-6.541985
0.09082031,0.958252,-0.1574707,-0.648855,-0.6717557,-0.4885496
0.1367188,0.9541016,-0.1567383,-2.0,-0.4351145,2.648855
0.1940918,0.9790039,-0.1313477,-1.48855,-0.3435115,1.916031
0.2219238,0.9714355,-0.1137695,-0.5572519,-0.7557252,-0.5954198
0.1894531,0.9638672,-0.109375,-0.1145038,-0.8396947,-1.236641
0.1601563,0.9626465,-0.1411133,-0.6870229,-0.6412213,-0.1679389
0.1601563,0.9665527,-0.144043,-0.5038168,-0.4198473,0.8854962
-eTwist-,-e-,-e-,-e-,-e-,-e-
-sTwist-,-s-,-s-,-s-,-s-,-s-
0.1762695,0.9729004,-0.1132813,-0.6412213,-0.5496183,0.06870229
0.1818848,1.001709,-0.1647949,-1.458015,-0.5343512,-0.1221374
0.1604004,0.9316406,-0.1452637,-2.557252,-1.137405,0.0610687
0.1584473,0.8793945,-0.208252,-5.38168,-17.58779,4.519084
0.8806152,0.9255371,-0.04980469,-14.49618,-188.0534,-27.66412
0.2058105,1.016846,-0.06689453,-31.10687,-233.9847,-34.55725
-0.1181641,0.9455566,-0.1894531,-33.91603,-211.4733,-17.8855
0.1218262,0.9685059,-0.2868652,-35.19847,-240.8626,-18.05343
-0.09814453,0.9885254,-0.05419922,-33.03053,-248.1832,26.25191
0.2246094,0.9423828,-0.09228516,-41.80916,-248.1832,3.992366
0.2429199,0.9091797,-0.276123,-43.51908,-248.1832,-11.54198
0.1638184,0.8945313,-0.2246094,-41.0916,-248.1832,11.16031
0.1203613,1.054199,-0.08056641,-34.07634,-210.5878,-3.832061
0.8098145,0.9990234,-0.1806641,-51.32824,-248.1832,-22.25954
-0.08203125,1.174561,-0.08276367,-31.80916,-150.9542,-41.96183
-0.8608398,1.001953,0.04638672,10.59542,165.7634,65.45802
0.2868652,0.7224121,-0.1357422,7.152672,241.2443,36.54198
0.4125977,0.9396973,-0.06860352,37.64885,171.0076,58.22137
0.7006836,1.114746,0.286377,43.38168,233.855,6.679389
0.6403809,0.8095703,-0.2590332,40.0916,250.1298,-16.16031
0.2270508,1.036133,-0.328125,56.51908,235.8931,-15.9313
0.1970215,0.9714355,-0.2148438,41.15267,250.1298,5.755725
0.1816406,0.9719238,-0.09277344,35.99237,237.5573,-35.80153
0.02612305,0.8703613,-0.2470703,30.74046,250.1298,-18.19084
0.07226563,1.144287,0.0559082,48.51145,231.3664,22.83206
0.3222656,1.032959,0.06762695,23.67939,126.2519,-13.61069
0.4321289,0.9030762,-0.298584,-4.206107,-31.80153,-20.58015
0.3344727,0.9587402,-0.159668,1.954198,3.122137,25.34351
0.3547363,0.9936523,-0.1088867,0.6641222,4.38168,-4.541985
0.2565918,0.9169922,-0.1450195,-1.824428,3.633588,-5.709924
0.1838379,0.9550781,-0.151123,-0.7633588,0.3129771,-9.488549
0.09057617,0.9902344,-0.1118164,0.5725191,-0.4274809,-2.641221
0.09594727,0.9833984,-0.121582,0.1145038,-0.4732824,2.664122
0.1608887,0.967041,-0.1501465,-0.832061,0.1145038,3.618321
0.2236328,0.9418945,-0.1604004,-1.59542,-0.3587786,0.832061
0.2207031,0.9614258,-0.130127,-1.450382,-0.5038168,-1.816794
0.1689453,0.9777832,-0.1162109,-0.5343512,-0.5877862,-1.381679
0.1367188,0.9711914,-0.128418,-0.129771,-0.8473283,1.0
0.1638184,0.9694824,-0.1320801,-0.3206107,-0.4198473,1.664122
0.1960449,0.9558105,-0.1396484,-1.0,-0.6259542,0.4732824
0.2016602,0.9643555,-0.1428223,-1.305344,-0.5954198,-0.7709923
0.1704102,0.9711914,-0.114502,-0.9694656,-0.5496183,-0.6412213
0.1540527,0.9731445,-0.1176758,-0.3435115,-0.480916,0.3053435
-eTwist-,-e-,-e-,-e-,-e-,-e-
-sTwist-,-s-,-s-,-s-,-s-,-s-
0.173584,0.9667969,-0.1318359,-0.3053435,-0.7175572,0.0610687
0.1843262,0.9584961,-0.1142578,0.4122138,-2.603053,0.7099237
0.1787109,1.020508,-0.08227539,0.5954198,-0.8854962,0.5496183
0.1879883,1.010254,-0.09863281,-1.496183,-3.625954,-0.7557252
0.3278809,0.9206543,-0.2219238,-12.72519,-77.59542,-11.51145
0.7817383,0.9008789,-0.1398926,-27.12214,-241.7023,-37.31298
-0.03442383,1.023438,-0.1455078,-32.90076,-226.6336,-39.93893
-0.1279297,0.9677734,-0.1306152,-29.33588,-204.5267,-13.67176
-0.1811523,0.911377,-0.0546875,-28.48855,-248.1832,58.09924
0.1977539,1.007813,-0.09814453,-43.48855,-249.8168,-19.69466
-0.07641602,0.8803711,-0.1848145,-37.03053,-248.1832,42.90076
0.4365234,0.9863281,-0.06811523,-44.85496,-248.1832,-9.0
0.07543945,0.8745117,-0.324707,-39.64885,-248.1832,28.84733
0.1376953,0.9660645,-0.09204102,-35.52672,-217.1756,-30.86259
-0.7980957,1.075928,0.1350098,5.61832,157.9237,64.87023
0.3271484,0.7460938,-0.3776855,1.946565,249.8244,36.45802
0.3608398,0.8701172,-0.1206055,28.87023,165.9466,61.69466
0.09472656,1.201416,0.4191895,59.39695,222.916,24.87786
0.355957,0.7631836,-0.1914063,38.57252,243.5649,4.312977
0.5307617,0.9384766,-0.1945801,56.64122,250.1298,-22.63359
0.4973145,0.8339844,-0.548584,30.23664,184.1756,-22.64122
0.00390625,1.166016,-0.2260742,42.77863,250.1298,-31.19084
0.2199707,0.7114258,-0.4484863,12.25191,246.6183,-31.67175
0.02783203,1.080322,-0.05688477,40.0458,205.8779,4.603054
0.3071289,1.095947,0.001708984,16.16031,73.76336,12.05344
0.3352051,0.826416,-0.364502,-8.053435,-31.74046,-23.00763
-0.07421875,1.010254,-0.2312012,-11.06107,-66.73283,0.1832061
-0.1120605,1.033203,-0.1005859,-9.603053,10.98473,-12.79389
0.002685547,1.003418,-0.0690918,4.465649,0.870229,30.16794
0.28125,0.9975586,-0.0769043,-0.6870229,-2.274809,29.83969
0.3193359,0.8967285,-0.128418,-3.114504,2.40458,23.93893
0.5456543,0.9936523,-0.1069336,-1.122137,-7.29771,-5.038168
0.2265625,0.9494629,-0.1245117,0.04580153,-1.572519,-9.251908
0.1425781,0.9621582,-0.1398926,0.9694656,-0.1374046,-8.419847
0.09106445,0.9804688,-0.1411133,-0.870229,-0.6870229,-2.29771
0.09790039,0.9714355,-0.1408691,-1.816794,-0.2061069,2.022901
0.1618652,0.9648438,-0.1262207,-0.7099237,-0.8167939,2.832061
0.2092285,0.9587402,-0.128418,-0.7557252,-0.3740458,0.7251908
0.2092285,0.970459,-0.1413574,0.0610687,-0.6335878,-1.160305
0.173584,0.972168,-0.1293945,-0.4274809,-0.8625955,-0.9312977
0.1469727,0.9680176,-0.1320801,-1.053435,-0.6183206,0.2519084
0.1625977,0.9604492,-0.1330566,-0.8167939,-0.7480916,0.8625955
0.1833496,0.9697266,-0.1201172,-0.5343512,-0.4503817,0.4503817
-eTwist-,-e-,-e-,-e-,-e-,-e-
-sTwist-,-s-,-s-,-s-,-s-,-s-
0.1743164,0.9677734,-0.1315918,-0.4732824,-0.4885496,0.04580153
0.1694336,0.9882813,-0.1640625,-1.862595,-0.2748091,-0.03816794
0.2001953,0.947998,-0.1489258,-3.053435,-0.5725191,-0.7709923
0.6950684,0.9038086,-0.1015625,-10.9771,-123.6489,-16.76336
0.6394043,0.8693848,-0.1208496,-32.50382,-248.1832,-38.61069
-0.126709,1.033936,-0.06762695,-33.0916,-244.4198,-36.44275
-0.1733398,1.017822,-0.09741211,-30.16031,-218.3817,-5.679389
0.2573242,1.058105,-0.192627,-37.9542,-248.1832,18.41221
0.09643555,0.8666992,-0.1411133,-44.9084,-248.1832,5.015267
0.5073242,0.9436035,-0.1291504,-46.66412,-248.1832,-17.03053
-0.04516602,1.070068,-0.03686523,-39.59542,-225.4657,-13.35878
0.2746582,0.7705078,-0.4243164,-60.0916,-248.1832,-28.64886
-0.08178711,1.019775,-0.1203613,-32.87023,-248.1832,11.36641
0.7856445,0.9455566,-0.0222168,-46.47328,-248.1832,-26.03053
-0.121582,1.030273,-0.05786133,-13.92366,-39.56488,-47.16031
-1.227539,1.20874,0.4316406,39.91603,170.2061,76.49619
0.291748,0.8972168,-0.1123047,20.31298,201.6718,65.19084
0.4665527,0.880127,-0.2333984,21.38168,221.8626,6.946565
0.2099609,1.01001,-0.1564941,42.41221,241.6107,10.44275
0.284668,0.9807129,-0.2302246,48.89313,246.7634,-5.572519
0.05053711,0.9880371,-0.03051758,48.05344,250.1298,-9.610687
0.5566406,0.8820801,-0.348877,36.92366,220.6718,-14.25954
0.0004882813,1.105225,0.01147461,52.73283,250.1298,1.129771
0.621582,0.9191895,-0.1660156,33.35115,250.1298,-13.48855
0.251709,0.8740234,-0.2214355,25.72519,221.7405,-12.74809
0.9611816,1.078125,-0.0769043,19.59542,30.26718,-21.38931
0.03222656,1.067383,-0.1723633,-3.229008,-5.526718,-47.87023
-0.1816406,0.9433594,-0.1503906,-11.45802,-9.099236,-1.175573
0.03735352,0.9584961,-0.1105957,-9.290076,-25.43511,12.83969
0.1533203,0.9487305,-0.09301758,-6.694656,-43.32061,14.54962
0.1750488,0.9650879,-0.09399414,-5.068702,-45.44275,13.12214
0.1884766,0.9638672,-0.138916,-2.801527,-15.35878,10.78626
0.246582,0.9438477,-0.1633301,-1.030534,-0.3664122,17.05343
0.3105469,0.963623,-0.1242676,-2.70229,0.1450382,4.946565
0.2658691,0.9697266,-0.08520508,-1.633588,-2.725191,-7.473282
0.1003418,0.9746094,-0.08422852,1.572519,-2.083969,-2.519084
0.1252441,0.9873047,-0.1225586,2.824427,-1.977099,-0.2977099
0.128418,0.9604492,-0.1791992,1.053435,-1.10687,1.305344
0.1599121,0.9616699,-0.1933594,-1.732824,-0.4732824,0.9541985
0.1774902,0.9628906,-0.1533203,-3.687023,0.04580153,0.3053435
0.1774902,0.9724121,-0.0847168,-2.274809,-0.3282443,-0.07633588
0.1606445,0.9780273,-0.08959961,0.8625955,-1.038168,-0.2900764
0.161377,0.970459,-0.1367188,1.312977,-0.8625955,0.09160305
-eTwist-,-e-,-e-,-e-,-e-,-e-
-sTwist-,-s-,-s-,-s-,-s-,-s-
0.1550293,0.9746094,-0.1379395,-0.5343512,-0.7480916,0.08396947
0.1621094,0.9858398,-0.1708984,-2.091603,-0.02290076,0.1832061
0.1557617,0.9367676,-0.1591797,-2.648855,-0.2442748,0.5572519
0.1674805,0.8803711,-0.1176758,-6.534351,-72.78626,22.71756
1.117188,0.9362793,-0.2253418,-22.66412,-180.2214,-14.44275
0.06616211,0.9335938,-0.3261719,-39.82443,-208.8855,-53.73283
-0.135498,0.9475098,-0.1386719,-27.8855,-248.1832,14.0229
-0.0871582,1.021484,0.01489258,-34.0687,-206.2137,-8.793893
0.3796387,0.8603516,-0.1169434,-40.26717,-248.1832,18.70992
-0.01025391,1.128906,0.09887695,-29.40458,-247.9771,24.46565
0.3662109,0.8449707,-0.2294922,-47.31298,-248.1832,-12.36641
0.003173828,0.9812012,-0.01904297,-30.0916,-248.1832,25.96183
0.005615234,0.9841309,-0.08935547,-41.54962,-225.7328,-5.755725
-0.1843262,0.9475098,-0.2070313,-16.90076,20.58779,-29.9084
0.3059082,0.9399414,-0.1865234,13.78626,240.542,26.35878
0.4182129,0.9890137,0.05249023,38.73283,213.9237,72.96947
0.8288574,1.129639,0.2094727,36.38931,200.1221,4.984733
0.3164063,0.8691406,-0.07861328,41.58015,231.5191,-2.053435
0.1069336,1.046631,-0.1152344,61.65649,250.1298,2.290076
0.4838867,0.876709,-0.1540527,46.33588,227.6336,-15.60305
0.08837891,0.9169922,-0.234375,39.99237,250.1298,-20.82443
0.7856445,0.970459,-0.4863281,29.81679,234.6412,-22.16794
-0.07910156,1.02002,-0.111084,32.8855,250.1298,-37.61832
0.1298828,0.8327637,-0.2058105,24.40458,211.3588,-6.603054
-0.1130371,1.144531,0.05664063,43.03053,235.7939,17.06107
0.307373,0.9086914,-0.1826172,17.35878,93.42748,36.92366
1.321777,0.9172363,-0.2219238,-2.412214,-37.37405,-24.18321
-0.07421875,0.9763184,-0.2832031,-20.29771,-67.12214,-1.038168
0.02416992,0.96875,-0.2258301,-18.92366,-10.34351,-18.05343
-0.09985352,1.049805,-0.009765625,1.351145,-2.832061,28.64122
0.2824707,0.9882813,-0.01098633,-0.9465649,-2.21374,27.70992
0.08789063,0.9804688,-0.1357422,0.2671756,-0.8167939,-1.78626
0.09643555,0.9902344,-0.1169434,0.3740458,-0.5038168,2.244275
0.1633301,0.965332,-0.1467285,-0.5648855,-0.5954198,3.183206
0.2180176,0.9560547,-0.1420898,-1.419847,-0.2824428,0.7022901
0.2172852,0.9606934,-0.1303711,-1.419847,-0.4045802,-1.687023
0.1726074,0.9731445,-0.1098633,-0.6030535,-0.7328244,-1.21374
0.1345215,0.9716797,-0.1152344,-0.007633588,-0.6412213,0.9694656
0.1586914,0.9685059,-0.1367188,-0.2824428,-0.6793893,1.732824
0.1901855,0.9650879,-0.1494141,-1.0,-0.5954198,0.3664122
0.204834,0.956543,-0.140625,-1.267176,-0.4274809,-0.9236641
0.170166,0.9694824,-0.111084,-0.9083969,-0.7099237,-0.7633588
0.1462402,0.9677734,-0.1276855,-0.351145,-0.6335878,0.5954198
-eTwist-,-e-,-e-,-e-,-e-,-e-
-sTwist-,-s-,-s-,-s-,-s-,-s-
0.161377,0.9667969,-0.1296387,-0.3129771,-0.5877862,0.2748091
0.1677246,0.9899902,-0.1662598,-1.465649,-0.1679389,0.1755725
0.1765137,0.9338379,-0.1577148,-2.801527,-3.80916,-1.358779
0.5910645,0.8896484,-0.1772461,-12.39695,-107.084,-14.08397
0.6086426,0.8916016,-0.2995605,-34.0687,-248.1832,-36.74046
-0.1357422,1.013672,-0.06323242,-29.25191,-221.4504,-40.35115
-0.1025391,0.9189453,-0.229248,-38.27481,-248.1832,-14.66412
-0.121582,1.011963,-0.08032227,-39.25191,-248.1832,27.69466
0.1015625,0.9433594,-0.1269531,-42.42748,-249.1298,-11.8855
0.005615234,0.9125977,-0.1850586,-35.25191,-248.1832,41.83206
0.2397461,1.00415,-0.1025391,-38.96947,-248.1832,6.358778
0.5419922,0.9038086,-0.3076172,-41.34351,-248.1832,-3.534351
0.1225586,1.043701,0.06103516,-32.37405,-248.1832,-8.984733
0.07983398,0.9724121,0.01123047,-42.77863,-238.5038,-23.77099
-0.2424316,0.8874512,-0.2824707,-22.54962,11.32061,-39.40458
-0.470459,1.081299,-0.3220215,16.33588,140.626,57.87023
0.2348633,1.096924,0.3393555,30.81679,193.9542,50.57252
0.3615723,0.7805176,-0.1088867,21.19084,203.6107,10.0687
0.3654785,1.087158,-0.07885742,52.87023,201.2901,4.343512
0.09326172,1.000244,0.02856445,46.41985,250.1298,-3.679389
0.8500977,0.7866211,-0.3735352,38.98473,219.1298,-17.55725
0.2893066,0.9611816,-0.3693848,36.76336,250.1298,-23.14504
0.2651367,0.9665527,-0.1474609,37.01527,222.9237,-17.45802
-0.06054688,1.204346,0.06958008,41.50382,250.1298,-22.35878
0.1364746,0.8088379,-0.2055664,22.41221,158.5573,18.65649
1.343506,1.035645,-0.1154785,13.44275,-5.70229,-20.34351
-0.1000977,0.9914551,-0.2583008,-9.534351,-14.89313,-24.9084
-0.09350586,0.9663086,-0.140625,-12.1145,-37.32061,6.847328
0.1003418,0.9748535,-0.1237793,-13.76336,-64.79389,13.55725
0.09643555,0.9941406,-0.05761719,-8.793893,-13.18321,8.564885
0.111084,0.9836426,-0.05761719,5.198473,1.877863,34.61832
0.3256836,0.9523926,-0.1276855,-0.3206107,0.7480916,27.66412
0.5737305,0.9553223,-0.1503906,-2.480916,-9.312977,-5.862596
0.1833496,0.9470215,-0.128418,-2.603053,-1.862595,-8.328244
0.1262207,0.9782715,-0.09765625,-0.1450382,-0.8396947,-6.549618
0.1032715,0.9873047,-0.09082031,2.549618,-2.030534,-2.251908
0.1008301,0.9763184,-0.1418457,2.496183,-1.473282,1.473282
0.1430664,0.9599609,-0.2089844,-0.2900764,-0.3206107,2.832061
0.204834,0.9562988,-0.1672363,-3.862595,0.1603053,0.7251908
0.2019043,0.9746094,-0.09716797,-2.748092,-0.4122138,-0.9389313
0.1706543,0.9719238,-0.08276367,0.3435115,-0.9847328,-0.7251908
0.1455078,0.9714355,-0.1091309,1.908397,-0.870229,0.6717557
0.1633301,0.9602051,-0.1669922,0.4122138,-0.6412213,1.015267
-eTwist-,-e-,-e-,-e-,-e-,-e-
-sTwist-,-s-,-s-,-s-,-s-,-s-
0.1650391,0.9631348,-0.1337891,-0.8396947,-0.648855,0.4122138
0.1650391,0.994873,-0.1660156,-2.877863,-0.0610687,0.259542
0.1821289,0.9296875,-0.1479492,-2.824427,-0.7709923,-0.2900764
0.1914063,0.9230957,-0.1750488,-1.992366,-0.4503817,-0.519084
0.8442383,0.9135742,-0.2158203,-16.29771,-148.3588,-27.79389
0.4375,0.9294434,-0.1843262,-35.37405,-241.6565,-44.96183
-0.1748047,1.005371,-0.1652832,-29.83969,-178.0229,-35.13741
0.2060547,0.9338379,-0.4238281,-44.79389,-238.6412,-36.9542
-0.2663574,0.9882813,-0.05151367,-31.9084,-248.1832,12.29771
0.2731934,0.9970703,-0.0690918,-39.41221,-248.1832,3.938931
0.3815918,1.014404,-0.1538086,-37.19847,-248.1832,-3.778626
0.03710938,0.9484863,-0.1403809,-34.82443,-248.1832,-5.923664
0.02270508,1.104248,0.1999512,-42.67939,-238.0382,-27.94657
-0.5239258,0.9182129,0.09130859,-9.511451,24.9771,-3.244275
-0.2182617,1.062012,-0.177002,23.75573,163.5496,56.51908
0.1547852,1.038574,0.1191406,32.48092,217.8702,61.35878
0.1706543,1.040527,0.1359863,49.64885,227.916,7.877862
0.4777832,0.8967285,-0.2045898,37.32824,250.1298,-10.47328
0.2380371,0.9255371,-0.2375488,48.83969,250.1298,-12.16031
0.04541016,0.982666,-0.04907227,45.80916,250.1298,-4.312977
0.2521973,0.8227539,-0.3486328,32.14504,225.313,-20.15267
0.3278809,0.9511719,-0.2338867,27.58779,167.6641,-22.24427
0.1958008,1.019043,-0.2185059,18.69466,170.6107,-39.85496
-0.1547852,1.091797,0.05224609,39.31298,221.2977,5.480916
-0.2636719,0.9333496,0.05664063,26.91603,250.1298,21.83206
0.3308105,0.7397461,-0.4006348,15.71756,158.9389,36.29008
1.613525,1.161133,-0.06835938,13.38931,-25.39695,-17.05343
-0.06787109,1.004883,-0.2321777,-9.587787,-11.81679,-21.42748
-0.05786133,0.9680176,-0.1147461,-11.1374,-30.19847,10.89313
0.1218262,0.9770508,-0.1005859,-9.122137,-39.93893,10.77863
0.135498,0.9794922,-0.08398438,-6.664122,-37.8168,10.23664
0.05102539,0.9848633,-0.04541016,1.167939,7.183206,19.20611
0.293457,0.9187012,-0.1677246,0.4045802,1.068702,17.77863
0.3183594,0.9526367,-0.1726074,-1.343511,1.137405,3.396947
0.2851563,0.9763184,-0.1020508,-0.6793893,-1.572519,-5.992366
0.1594238,0.96875,-0.09765625,-0.1984733,-1.977099,-4.603054
0.1208496,0.9790039,-0.1071777,2.129771,-2.251908,-1.992366
0.126709,0.973877,-0.1386719,1.51145,-1.29771,0.09923664
0.1447754,0.9699707,-0.1750488,-0.09160305,-0.6183206,1.19084
0.1655273,0.9624023,-0.1669922,-2.938931,-0.0610687,1.030534
0.177002,0.9665527,-0.1169434,-3.221374,-0.4198473,0.3587786
0.1762695,0.9658203,-0.08447266,-1.381679,-0.5419847,-0.1908397
0.1669922,0.9692383,-0.1005859,1.061069,-1.076336,-0.2900764
-eTwist-,-e-,-e-,-e-,-e-,-e-
-sTwist-,-s-,-s-,-s-,-s-,-s-
0.170166,0.9726563,-0.1328125,-0.5572519,-0.7022901,0.0
0.1789551,0.9648438,-0.1245117,0.6641222,-2.038168,0.4122138
0.1757813,1.014404,-0.1030273,-0.3435115,-1.419847,0.1908397
0.4372559,0.9416504,-0.2211914,-10.05344,-66.82442,-10.39695
0.5085449,0.8999023,-0.2348633,-29.34351,-248.1832,-32.45802
-0.1179199,1.001709,-0.02709961,-30.67175,-188.0534,-62.90076
-0.4484863,0.9375,-0.07446289,-29.47328,-248.1832,25.63359
0.1335449,0.9914551,-0.1289063,-39.51908,-210.8473,-28.70229
0.2160645,0.8723145,-0.3132324,-48.20611,-248.1832,-19.29771
-0.279541,1.074463,-0.1479492,-29.68702,-248.1832,34.69466
0.2944336,0.9614258,-0.286377,-41.58779,-238.0687,-9.076336
0.1899414,0.9094238,-0.1743164,-27.45038,-248.1832,38.38931
0.1791992,1.120361,-0.04223633,-39.29771,-248.1832,4.503817
0.956543,0.8293457,-0.4089355,-53.70229,-248.1832,-38.64885
-0.1142578,1.107666,-0.2790527,-30.05343,-93.71756,-47.48855
-1.296387,1.033936,0.05078125,9.885496,199.5191,66.43511
0.3205566,0.7978516,-0.1872559,16.12977,202.7863,56.73283
0.310791,0.9118652,0.144043,41.39695,236.1832,9.564885
0.4960938,0.8393555,-0.2087402,40.0687,221.9618,-14.71756
0.1337891,0.9941406,-0.1716309,57.12214,247.9847,-9.244275
0.1816406,1.002197,-0.08447266,47.24427,250.1298,-9.19084
0.4060059,0.8857422,-0.2749023,37.51908,226.5649,-18.29008
0.2175293,0.9941406,-0.1259766,26.87023,173.6947,-18.37405
0.1467285,0.9995117,-0.2351074,16.92366,182.542,-36.54198
-0.1586914,1.064697,0.02148438,33.0,239.4657,4.984733
0.2358398,0.7927246,-0.1237793,6.427481,38.46565,46.33588
0.361084,0.9206543,-0.3798828,-9.221375,-32.41985,-21.98473
-0.111084,0.989502,-0.1921387,-9.335877,-5.206107,-10.38168
-0.03564453,0.9819336,-0.0793457,-3.78626,-17.03817,14.38168
0.1899414,0.984375,-0.078125,-4.10687,-23.50382,10.71756
0.1862793,0.9575195,-0.109375,-4.015267,-31.74046,8.801527
0.2087402,0.9787598,-0.1274414,-3.167939,-24.24427,6.328244
0.2299805,0.9667969,-0.1416016,-3.427481,-13.10687,2.030534
0.2019043,0.9614258,-0.1169434,-2.770992,-0.7099237,-0.3587786
0.220459,0.973877,-0.08129883,-1.175573,-1.221374,-3.465649
0.1408691,0.9694824,-0.1020508,1.358779,-1.938931,-1.664122
0.15625,0.9711914,-0.1237793,-3.229008,-0.09160305,1.038168
0.1542969,0.9719238,-0.1052246,-0.7862596,-0.5572519,0.9923664
0.1765137,0.9748535,-0.111084,0.8854962,-0.9160305,-0.1145038
0.1716309,0.9628906,-0.1447754,0.2366412,-1.022901,-0.3969466
0.1630859,0.9602051,-0.1635742,-1.114504,-0.5801527,-0.6335878
0.1503906,0.9746094,-0.1413574,-1.862595,-0.519084,0.2213741
0.1418457,0.9777832,-0.1098633,-1.19084,-0.5648855,0.9694656
-eTwist-,-e-,-e-,-e-,-e-,-e-
-sTwist-,-s-,-s-,-s-,-s-,-s-
0.1704102,0.9716797,-0.1245117,-0.6030535,-0.5648855,0.2442748
0.161377,0.9553223,-0.1728516,-2.381679,-0.04580153,-0.1908397
0.1569824,0.9501953,-0.1557617,-2.290076,-0.09160305,0.129771
0.3757324,0.8515625,-0.1743164,-12.58779,-145.3206,39.0229
0.03295898,0.9074707,-0.02661133,-25.23664,-248.1832,-31.70992
-0.1135254,0.9526367,-0.02539063,-40.21374,-214.5191,-82.32061
-0.6359863,0.8430176,-0.1933594,-36.16794,-248.1832,1.801527
-0.109375,1.033691,-0.04003906,-37.83206,-248.1832,21.25954
0.2556152,0.9645996,-0.07739258,-38.94656,-242.2366,-12.08397
0.1999512,0.9194336,0.01391602,-25.99237,-248.1832,41.87786
0.1772461,1.101318,-0.0078125,-30.0916,-240.3053,9.221375
0.5769043,0.8181152,-0.4477539,-52.19084,-248.1832,-34.26717
0.02124023,1.003174,-0.2502441,-30.13741,-248.1832,24.31298
0.1345215,0.9697266,-0.2832031,-61.16794,-229.9084,-24.50382
-0.1638184,1.154541,-0.07006836,-9.061069,-2.519084,-13.64122
-0.453125,1.06958,0.2912598,10.99237,154.9771,38.25954
0.06347656,0.9233398,0.1252441,31.03053,225.855,61.57252
0.857666,0.9958496,0.03344727,43.68702,209.9847,7.48855
0.3239746,0.9077148,-0.1320801,42.83969,250.1298,-0.1526718
0.5292969,0.9641113,-0.2619629,50.83969,245.1374,-8.152672
0.3708496,0.984375,-0.1125488,43.67939,250.084,-17.84733
0.2858887,0.9147949,-0.1599121,41.19084,231.7481,-20.49618
0.3156738,0.9545898,-0.2644043,28.61832,192.0229,-21.51145
0.1503906,1.012695,-0.1811523,23.9084,160.7328,-23.87786
-0.1557617,1.064941,0.003173828,34.67176,234.1221,-7.40458
0.4577637,0.9931641,-0.1557617,9.641221,12.54198,-10.31298
-0.0007324219,0.9577637,-0.1306152,-7.992366,-0.5877862,-37.92366
-0.1237793,1.0,-0.02880859,-10.78626,-16.01527,7.496183
0.06884766,0.9685059,-0.05493164,-6.641222,-14.8855,14.94656
0.1916504,0.9763184,-0.06811523,-0.4732824,-20.19847,11.84733
0.1987305,0.9655762,-0.1220703,0.4198473,-20.84733,9.740458
0.236084,0.9597168,-0.1633301,0.07633588,-11.22137,3.961832
0.2287598,0.9628906,-0.1813965,-1.541985,0.7099237,1.343511
0.2497559,0.9648438,-0.1335449,-3.167939,-0.3358779,-4.572519
0.1525879,0.9743652,-0.08129883,-0.9847328,-1.541985,-3.725191
0.1291504,0.973877,-0.08569336,0.9160305,-1.48855,-1.992366
0.1264648,0.9753418,-0.1447754,2.282443,-1.221374,-0.6183206
0.1394043,0.9699707,-0.1765137,0.3969466,-0.8167939,0.5877862
0.1506348,0.9599609,-0.1728516,-2.40458,-0.129771,0.8549618
0.1621094,0.9707031,-0.1247559,-2.832061,-0.05343511,0.4656488
0.1640625,0.9628906,-0.1086426,-1.160305,-0.5954198,0.1908397
0.1621094,0.9711914,-0.1000977,0.8549618,-0.7938931,-0.007633588
0.1577148,0.9729004,-0.1452637,0.2519084,-0.7022901,-0.1068702
-eTwist-,-e-,-e-,-e-,-e-,-e-
-sTwist-,-s-,-s-,-s-,-s-,-s-
0.1589355,0.9660645,-0.1254883,-0.9312977,-0.7175572,-0.0610687
0.1547852,1.008301,-0.1494141,-1.251908,-0.3206107,0.2366412
0.1469727,0.9343262,-0.144043,-2.244275,-0.3816794,-0.3358779
0.1345215,0.9377441,-0.1530762,-1.70229,0.3435115,-0.3816794
0.6245117,0.9360352,-0.1411133,-17.84733,-183.2824,-56.59542
-0.06811523,1.003418,0.1318359,-21.70229,-213.7023,0.2519084
0.1052246,1.026367,-0.223877,-40.00763,-170.0611,-49.24427
0.1933594,0.9387207,-0.2148438,-40.61069,-248.1832,-4.206107
-0.2133789,1.152588,0.3171387,-20.90076,-209.1069,31.51908
0.3322754,0.7653809,-0.1982422,-45.77099,-248.1832,7.961832
0.1035156,1.044678,0.01464844,-17.19084,-248.1832,33.86259
0.06152344,0.9570313,-0.02612305,-45.65649,-248.1832,-14.49618
0.2629395,0.8671875,-0.3676758,-32.77863,-248.1832,-18.80916
-0.07763672,1.115723,-0.1254883,-28.93893,-161.4886,-23.41221
-0.4467773,0.9707031,-0.06591797,-0.8625955,107.5954,30.47328
0.4365234,0.894043,-0.1032715,43.35878,250.1298,-5.656488
0.3710938,1.030762,-0.2338867,57.17557,250.1298,-3.122137
0.3972168,0.9660645,-0.04663086,44.98473,231.7099,-17.64122
0.2077637,0.9189453,-0.2116699,38.38168,229.1221,-21.74809
0.315918,0.9260254,-0.2841797,19.83206,151.6107,-22.10687
-0.2224121,1.056641,-0.0004882813,30.70992,250.1298,-31.16031
0.1252441,0.8581543,-0.3579102,18.39695,250.1298,-18.33588
0.1166992,1.014893,-0.09106445,35.22901,191.2672,21.41221
0.2158203,1.068115,0.04907227,29.38168,175.0916,14.32061
0.2297363,0.9160156,-0.1940918,14.61069,99.01527,18.69466
0.3161621,0.8815918,-0.2373047,-1.870229,-22.44275,0.9465649
0.04858398,0.9787598,-0.2165527,-6.740458,-17.51908,0.5267176
0.07104492,1.002197,-0.1218262,-10.9084,-30.47328,6.755725
0.1672363,0.9645996,-0.08374023,-8.656488,-45.85496,6.38168
-0.03100586,1.007324,-0.008056641,-0.3129771,11.0,20.34351
0.2893066,0.9072266,-0.1726074,-0.7328244,3.389313,8.229008
0.3203125,0.9611816,-0.1464844,1.977099,-0.4351145,-0.3206107
0.2519531,0.9802246,-0.1362305,0.02290076,-0.8473283,-5.641222
0.1547852,0.9907227,-0.0949707,-0.7022901,-1.519084,-4.755725
0.1105957,0.9814453,-0.1044922,0.5343512,-1.267176,-0.9007633
0.119873,0.958252,-0.1503906,0.6641222,-0.7099237,1.251908
0.1520996,0.9641113,-0.1777344,-0.7328244,-0.4351145,2.206107
0.190918,0.9785156,-0.1416016,-1.725191,-0.2900764,0.4656488
0.1933594,0.9702148,-0.09936523,-2.351145,-0.3969466,-0.8244275
0.1687012,0.9619141,-0.1066895,-1.015267,-0.740458,-0.4961832
0.152832,0.9682617,-0.1171875,0.7099237,-0.832061,0.2137404
0.1591797,0.9755859,-0.1408691,0.9770992,-0.7480916,0.4656488
0.1677246,0.953125,-0.1665039,-1.366412,-0.6641222,0.2213741
-eTwist-,-e-,-e-,-e-,-e-,-e-
-sTwist-,-s-,-s-,-s-,-s-,-s-
0.1738281,0.973877,-0.1340332,-0.2213741,-0.7557252,0.1526718
0.177002,0.9453125,-0.1350098,0.0610687,-1.839695,0.0610687
0.1611328,1.009521,-0.1201172,-0.8167939,-1.679389,1.10687
0.1818848,0.8994141,-0.185791,-9.480916,-57.50382,-18.13741
0.5876465,0.8334961,-0.4316406,-32.0916,-197.5802,-22.00763
-0.08129883,0.9892578,-0.1555176,-30.66412,-214.8626,-22.31298
0.07275391,0.9387207,-0.1367188,-46.66412,-248.1832,-27.0916
-0.2021484,1.071045,0.01171875,-35.36641,-248.1832,30.45802
0.2104492,0.895752,-0.01464844,-45.15267,-248.1832,-5.770992
-0.01660156,0.9709473,-0.09594727,-24.12977,-248.1832,39.12977
0.300293,1.062012,-0.04125977,-31.24427,-248.1832,7.603054
0.7670898,0.9987793,-0.2805176,-35.35115,-248.1832,-13.29771
-0.04980469,1.095459,0.004150391,-26.80916,-248.1832,28.01527
0.3195801,0.8117676,-0.09204102,-46.67939,-248.1832,-23.56489
-0.204834,1.052979,0.04589844,-22.09924,-46.9313,-37.90076
-1.116699,1.166748,0.2214355,17.45802,170.687,69.80153
0.2194824,0.8569336,0.2277832,26.21374,214.8244,52.65649
0.3483887,0.7946777,-0.2236328,28.85496,204.2443,18.73282
0.1660156,1.105225,0.003417969,50.56488,234.8321,-9.129771
0.1411133,1.033936,-0.06811523,55.83206,250.1298,-12.24428
0.3549805,0.9521484,-0.2214355,38.0,248.4122,-16.48855
0.1303711,0.9768066,-0.1647949,45.26717,249.0458,-14.58015
0.2614746,0.9833984,-0.2756348,27.59542,188.687,-20.39695
0.0847168,0.986084,-0.1992188,21.05343,192.3664,-39.92366
-0.1376953,1.011475,-0.02685547,32.29008,204.2748,12.89313
0.2463379,0.8361816,-0.09741211,6.198473,28.12977,34.49618
0.2683105,0.927002,-0.4133301,-9.893129,-25.08397,-19.61069
-0.09667969,0.9838867,-0.1313477,-9.679389,-6.801527,-1.145038
0.05126953,0.9787598,-0.07983398,-4.053435,-19.29771,14.87023
0.2067871,0.9863281,-0.08203125,-3.48855,-28.77099,9.954199
0.21875,0.9421387,-0.1401367,-4.21374,-36.27481,7.335878
0.2097168,0.9543457,-0.1618652,-3.442748,-28.33588,4.732824
0.2060547,0.979248,-0.1376953,-2.992366,-8.969465,2.129771
0.2143555,0.9541016,-0.1428223,-3.160305,0.9923664,-0.6030535
0.2224121,0.96875,-0.0859375,-0.9923664,-1.832061,-3.572519
0.1425781,0.9736328,-0.08251953,1.648855,-1.847328,-2.389313
0.1330566,0.9672852,-0.1293945,1.778626,-1.778626,-1.015267
0.1437988,0.9733887,-0.1745605,1.053435,-1.251908,-0.3358779
0.1437988,0.9724121,-0.1674805,-1.748092,-0.480916,0.4122138
0.1801758,0.9804688,-0.151123,0.5648855,-0.8625955,-0.351145
0.1557617,0.9685059,-0.1538086,-1.396947,-0.2977099,-0.259542
0.1555176,0.9645996,-0.1379395,-2.290076,-0.2366412,0.3664122
0.1589355,0.9682617,-0.114502,-1.450382,-0.480916,0.7251908
-eTwist-,-e-,-e-,-e-,-e-,-e-
-sTwist-,-s-,-s-,-s-,-s-,-s-
0.1650391,0.9621582,-0.1320801,-1.061069,-0.5572519,-0.03816794
0.173584,1.030762,-0.09130859,0.4503817,-1.244275,0.648855
0.152832,0.9404297,-0.1333008,-2.236641,-0.8244275,-0.9083969
0.1540527,0.9543457,-0.1335449,-1.312977,-0.5496183,0.9923664
0.5026855,0.8713379,-0.4052734,-22.25954,-130.8321,-37.64885
0.6894531,1.031494,-0.3154297,-33.44275,-248.1832,-46.30534
-0.1853027,1.177734,0.1081543,-24.82443,-191.916,-3.824427
0.1838379,0.8898926,-0.1838379,-48.55725,-248.1832,-34.86259
-0.4008789,1.006592,-0.1191406,-29.0,-248.1832,39.05344
0.2226563,0.9926758,0.01928711,-35.51908,-242.5878,6.007634
0.3823242,0.8579102,-0.2856445,-43.1832,-248.1832,-5.335878
-0.009277344,1.108643,-0.04345703,-20.25191,-248.1832,24.49618
0.06274414,0.9143066,-0.05126953,-45.72519,-246.3435,-14.87786
-0.1264648,0.9812012,-0.1867676,-14.22137,-4.694656,-19.03817
-0.3486328,1.027832,0.07568359,18.64886,158.3893,61.75573
0.237793,1.044678,0.1706543,26.8855,210.7252,57.35115
0.4650879,0.8032227,-0.1430664,22.01527,238.5802,1.80916
0.5944824,1.013672,-0.06811523,50.47328,219.0,2.641221
