ax,ay,az,gx,gy,gz
0.1745605,0.967041,-0.1867676,-0.8244275,-0.6335878,0.351145
0.1733398,0.9709473,-0.1882324,-0.8167939,-0.6564885,0.259542
0.1762695,0.9650879,-0.1848145,-0.9694656,-0.7251908,0.2366412
0.184082,0.9699707,-0.1853027,-0.870229,-0.6335878,0.2290076
0.1704102,0.9714355,-0.1809082,-0.6870229,-0.4427481,0.3206107
0.1799316,0.925293,-0.177002,-1.480916,-0.6717557,0.2900764
0.1877441,0.9758301,-0.1960449,-0.8473283,-1.076336,-0.1450382
0.1784668,0.979248,-0.1586914,-0.4198473,-0.4045802,0.778626
0.1713867,0.9675293,-0.1726074,-1.19084,-0.7557252,-0.02290076
0.1726074,0.9714355,-0.1833496,-0.9312977,-0.648855,0.3435115
0.1730957,0.9645996,-0.1831055,-1.068702,-0.5114504,0.5725191
0.1816406,0.9638672,-0.1867676,-0.8549618,-0.4351145,0.3435115
0.184082,0.9650879,-0.1884766,-0.5648855,-0.519084,0.1145038
0.1821289,0.9648438,-0.1777344,-0.6717557,-0.7022901,0.2442748
ax,ay,az,gx,gy,gz
0.1745605,0.9606934,-0.1738281,0.4732824,-0.09923664,0.07633588
0.1904297,0.9572754,-0.1201172,0.7633588,-0.4503817,0.6793893
0.1862793,0.9394531,-0.1699219,-1.198473,-23.60305,5.427481
0.439209,0.9406738,-0.2666016,-25.72519,-186.7481,-16.57252
0.2304688,0.9621582,-0.2856445,-27.41221,-239.9008,-29.60305
0.0004882813,1.051758,-0.302002,-39.77099,-248.1832,-9.839695
0.02075195,0.9663086,-0.2241211,-44.22901,-248.1832,2.198473
-0.03808594,1.0,-0.1643066,-42.42748,-248.1832,14.75572
-0.005859375,1.00708,-0.09472656,-41.77863,-248.1832,31.16031
0.3085938,1.026123,-0.1005859,-33.43512,-248.1832,24.61832
0.2385254,0.9733887,-0.1445313,-31.39695,-248.1832,21.78626
0.006835938,1.001465,-0.2182617,-26.22901,-164.2519,13.99237
0.2231445,1.031494,-0.2414551,-23.75573,-180.9771,30.52672
0.572998,0.9301758,-0.206543,-35.27481,-237.2595,-5.908397
-0.2546387,1.077148,-0.1855469,-38.91603,208.8473,-84.99236
0.2573242,1.169434,0.07763672,40.05344,145.8168,77.73283
0.3747559,0.9521484,0.5178223,11.62595,189.1069,73.76336
0.442627,0.6889648,-0.2021484,20.94657,196.0458,-11.03817
0.03222656,1.195068,0.3342285,77.25954,233.3817,12.05344
0.1237793,0.8654785,-0.2841797,42.45038,250.1298,3.564885
0.5803223,0.8469238,-0.4035645,43.64122,250.1298,-66.54962
0.008789063,1.012939,-0.1608887,69.72519,224.4275,15.12214
0.776123,0.9206543,-0.4138184,27.9084,250.1298,-37.12977
0.07373047,0.9746094,-0.2265625,38.22901,239.8626,-31.08397
0.02368164,1.067627,-0.01782227,32.54198,250.1298,-4.229008
0.3588867,0.8024902,-0.1982422,19.34351,67.32061,-35.29008
0.6159668,0.9040527,-0.3703613,-0.9465649,-68.07633,-57.37405
-0.213623,1.147461,-0.1677246,-8.061069,15.73282,-54.62595
-0.685791,0.9267578,-0.2980957,-10.73282,12.92366,18.29771
0.08203125,1.090576,-0.0378418,-2.885496,-3.854962,16.35878
0.1157227,0.9750977,-0.0456543,0.5648855,-2.519084,18.27481
0.1943359,0.9291992,-0.1635742,0.5572519,-2.381679,16.62595
0.2739258,0.9763184,-0.1872559,3.244275,-1.48855,11.46565
0.3007813,0.9489746,-0.2368164,-0.3740458,0.832061,3.030534
0.2790527,0.9516602,-0.2331543,-3.351145,-0.01526718,-5.29771
0.190918,0.970459,-0.1743164,-3.824427,-0.2519084,-7.89313
0.1298828,0.9851074,-0.1374512,-1.931298,0.1984733,-7.137404
0.08911133,0.9804688,-0.1337891,1.183206,-0.5954198,-2.29771
0.0793457,0.972168,-0.1809082,1.916031,-0.9847328,1.870229
0.1186523,0.9733887,-0.2160645,1.51145,-0.7709923,3.29771
0.1535645,0.9619141,-0.2224121,-1.412214,-0.9465649,2.885496
0.177002,0.9604492,-0.2077637,-2.679389,-0.259542,1.587786
0.1872559,0.9709473,-0.1682129,-2.442748,-0.4427481,-0.4656488
0.1757813,0.9697266,-0.151123,-0.8778625,-0.5343512,-1.351145
0.1469727,0.9748535,-0.1518555,0.610687,-0.3740458,-1.160305
0.1345215,0.973877,-0.184082,0.740458,-0.7022901,-0.2900764
0.1342773,0.9665527,-0.1989746,-0.3053435,-0.8244275,0.9160305
0.1330566,0.9719238,-0.2089844,-1.221374,-0.4427481,1.473282
0.1496582,0.9719238,-0.1870117,-2.251908,-0.7938931,1.351145
0.1638184,0.9699707,-0.171875,-1.549618,-0.3206107,0.6717557
0.1711426,0.9685059,-0.1608887,-0.5419847,-0.4961832,-0.3358779
0.1604004,0.9729004,-0.1777344,0.1145038,-0.5419847,-0.7480916
0.1506348,0.9750977,-0.1813965,-0.08396947,-0.2900764,-0.4732824
0.1420898,0.9694824,-0.2055664,-0.6259542,-0.6259542,0.1145038
0.161377,0.9655762,-0.175293,-0.4122138,-0.389313,-0.1145038
0.1569824,0.9672852,-0.1831055,-0.5267176,-0.6030535,-0.4580153
0.1530762,0.967041,-0.1777344,-0.7938931,-0.5801527,-0.3053435
0.1425781,0.9414063,-0.2697754,-3.648855,-0.8625955,0.8473283
0.1384277,0.9831543,-0.1928711,-0.8549618,-0.2061069,0.4503817
0.1501465,0.9914551,-0.1574707,-0.2137404,-0.8854962,1.076336
0.1499023,0.9689941,-0.1762695,-1.251908,-0.3816794,0.3129771
0.1591797,0.9682617,-0.1845703,-0.7022901,-0.5343512,0.08396947
0.157959,0.9770508,-0.1772461,-0.3816794,-0.6183206,-0.3358779
0.1455078,0.967041,-0.1772461,-0.7328244,-0.4274809,-0.02290076
0.145752,0.967041,-0.1765137,-0.6717557,-0.3969466,0.3435115
0.1484375,0.9702148,-0.173584,-0.3816794,-0.7099237,0.5343512
0.1530762,0.9765625,-0.1850586,-0.8015267,-0.6793893,0.6183206
0.1525879,0.9697266,-0.1865234,-0.9312977,-0.4351145,0.3206107
0.1494141,0.973877,-0.1816406,-0.9847328,-0.7175572,0.2061069
0.1496582,0.9753418,-0.1779785,-0.8854962,-0.5114504,0.1679389
0.1533203,0.9694824,-0.1789551,-0.8015267,-0.3664122,0.3206107
0.1479492,0.9689941,-0.1872559,-0.6183206,-0.519084,0.2748091
ax,ay,az,gx,gy,gz
0.1503906,0.9741211,-0.1816406,-0.6335878,-0.7251908,0.4656488
0.1584473,0.9851074,-0.2563477,-1.358779,-2.267176,0.5725191
0.2331543,0.9855957,-0.1601563,-1.503817,-50.99237,5.824428
0.3032227,0.9206543,-0.2827148,-14.35878,-119.7328,-4.51145
0.2585449,0.9819336,-0.2429199,-19.18321,-200.855,-9.946565
0.0300293,0.9848633,-0.2541504,-28.64886,-240.4504,-8.091603
-0.1025391,0.9499512,-0.2231445,-32.9542,-248.1832,8.984733
-0.0871582,0.9819336,-0.1813965,-35.0916,-248.1832,21.59542
0.06591797,0.9990234,-0.1433105,-33.44275,-248.1832,25.50382
0.159668,0.9626465,-0.1801758,-35.78626,-248.1832,31.0229
0.2165527,0.970459,-0.2211914,-35.64122,-248.1832,27.86259
0.0402832,0.9648438,-0.2758789,-35.54198,-227.5114,16.50382
0.08886719,0.9724121,-0.2458496,-30.15267,-204.916,52.38931
0.7016602,0.9958496,-0.08935547,-32.87023,-207.6107,11.45038
0.2927246,0.9099121,-0.2937012,-37.82443,142.4351,90.51908
0.2006836,0.666748,-0.4519043,-11.03817,250.1298,43.9771
1.230225,1.255615,0.2958984,65.67939,139.1069,4.641222
-0.04736328,0.9101563,0.2011719,27.68702,250.1298,9.030535
1.353516,0.9428711,-0.6022949,44.56488,227.5191,-44.86259
0.04931641,1.230957,0.2319336,74.75572,250.1298,23.83969
0.6181641,0.9055176,-0.3713379,34.8168,250.1298,-41.49618
0.1625977,1.0979,-0.2463379,59.51145,217.6412,-27.72519
-0.02075195,0.9375,-0.2167969,21.73282,250.1298,-12.19847
0.3601074,0.8547363,-0.4243164,23.77099,230.5496,-66.96183
0.05664063,1.23291,0.1604004,45.9084,241.8626,2.435115
0.4985352,0.6245117,-0.5405273,3.671756,48.96947,12.9313
0.1889648,1.003418,-0.2492676,7.778626,-56.22901,-52.9313
-0.2150879,0.9975586,-0.3469238,-13.46565,19.16031,-61.62595
-0.640625,0.9526367,-0.2932129,-8.625955,17.03817,22.25191
0.128418,1.089844,-0.03637695,-3.709924,-7.259542,20.9313
0.1147461,0.9655762,-0.07470703,-2.473282,-1.458015,22.9313
0.2131348,0.9421387,-0.1779785,-0.09923664,-1.778626,21.74809
0.284668,0.9719238,-0.1870117,2.389313,-0.778626,13.42748
0.3066406,0.9418945,-0.2214355,-0.8015267,-1.328244,3.381679
0.279541,0.958252,-0.2077637,-1.908397,-0.07633588,-3.763359
0.217041,0.9626465,-0.1994629,-3.19084,-0.0610687,-7.450382
0.15625,0.9699707,-0.1508789,-1.946565,-0.4656488,-7.70229
0.1118164,0.9833984,-0.1435547,0.007633588,-0.6183206,-5.564886
0.1049805,0.9763184,-0.1557617,1.389313,-0.6335878,-2.396947
0.1015625,0.9785156,-0.1918945,2.015267,-0.5572519,0.4580153
0.1184082,0.9633789,-0.2131348,0.1603053,-0.4961832,2.083969
0.1411133,0.9667969,-0.2070313,-1.816794,-0.5114504,2.282443
0.1704102,0.9709473,-0.1865234,-2.282443,-0.3358779,1.557252
0.1782227,0.9716797,-0.1728516,-2.244275,-0.6412213,0.1221374
0.1796875,0.9746094,-0.1555176,-0.5343512,-0.4198473,-0.6946565
0.1560059,0.9714355,-0.171875,0.5038168,-0.5572519,-1.10687
0.1416016,0.9694824,-0.1882324,0.2824428,-0.5572519,-0.5419847
0.1337891,0.9682617,-0.2055664,-0.6564885,-0.4503817,0.4045802
0.142334,0.9750977,-0.1865234,-1.694656,-0.6412213,1.152672
0.1540527,0.9719238,-0.1943359,-0.129771,-0.5419847,-0.2366412
0.1428223,0.9648438,-0.1906738,-1.10687,-0.5267176,-0.1145038
0.1437988,0.9763184,-0.1779785,-1.572519,-0.3740458,0.3816794
0.1462402,0.9731445,-0.1704102,-0.9923664,-0.5267176,0.519084
0.1477051,0.972168,-0.1694336,-0.4351145,-0.5877862,0.8244275
0.1538086,0.9711914,-0.1750488,-0.1755725,-0.7099237,0.6259542
0.1550293,0.9672852,-0.1833496,-0.2366412,-0.5648855,0.01526718
0.1557617,0.9726563,-0.1896973,-0.7480916,-0.4961832,-0.1450382
0.1499023,0.9702148,-0.1813965,-1.099237,-0.4580153,0.0610687
0.1469727,0.9733887,-0.1838379,-1.335878,-0.4503817,0.1832061
0.1442871,0.9692383,-0.1765137,-1.061069,-0.5267176,0.4656488
0.145752,0.9716797,-0.1728516,-0.5801527,-0.5648855,0.6412213
0.1503906,0.9694824,-0.1813965,-0.3740458,-0.7175572,0.5801527
0.1567383,0.9716797,-0.1716309,-0.7251908,-0.4961832,0.07633588
0.1542969,0.9736328,-0.1945801,-0.8931297,-0.5572519,-0.01526718
0.1508789,0.9724121,-0.1835938,-0.9389313,-0.4732824,0.0
0.128418,0.9592285,-0.2089844,-2.458015,-0.4503817,0.259542
0.1416016,0.9667969,-0.1660156,-0.8473283,-0.02290076,0.4732824
0.1599121,0.9645996,-0.2026367,-0.8549618,-0.5801527,0.6870229
0.1557617,0.9675293,-0.1848145,-0.2900764,-0.480916,0.3129771
0.1445313,0.9707031,-0.1860352,-1.061069,-0.5496183,0.129771
0.1496582,0.9709473,-0.1728516,-0.8854962,-0.5496183,0.2900764
0.1572266,0.9763184,-0.1806641,-0.6717557,-0.7938931,0.02290076
0.1445313,0.972168,-0.1706543,-0.2977099,-0.5038168,0.2061069
0.1533203,0.9785156,-0.1872559,-0.6564885,-0.3435115,0.3129771
0.1501465,0.9677734,-0.1853027,-0.8473283,-0.610687,0.2442748
0.151123,0.972168,-0.1918945,-0.870229,-0.6259542,0.2290076
0.1518555,0.9641113,-0.1828613,-1.10687,-0.3969466,0.1068702
0.1530762,0.96875,-0.1850586,-0.778626,-0.5038168,0.3740458
0.1455078,0.9736328,-0.1855469,-0.4351145,-0.7938931,0.1603053
0.1506348,0.9677734,-0.1835938,-0.3969466,-0.610687,0.389313
ax,ay,az,gx,gy,gz
0.1533203,0.9130859,-0.2612305,-4.748092,-0.0610687,0.1679389
0.1350098,0.9790039,-0.1103516,0.778626,0.8778625,0.8549618
0.2885742,0.9223633,-0.2194824,-3.053435,-41.35878,-0.740458
0.3483887,0.9267578,-0.2519531,-11.80916,-128.9847,-4.229008
0.2709961,0.9631348,-0.2197266,-18.16794,-205.4275,-17.9084
0.06787109,0.9785156,-0.2705078,-27.99237,-241.8244,-8.709924
0.1171875,0.9968262,-0.3122559,-38.15267,-248.1832,-4.267176
-0.1572266,1.0354,-0.08764648,-35.84733,-248.1832,18.9542
-0.006835938,0.9472656,-0.1850586,-36.56488,-248.1832,26.46565
0.09619141,0.9768066,-0.1171875,-31.18321,-248.1832,33.79389
0.1369629,0.9638672,-0.1447754,-31.91603,-248.1832,33.65649
0.1499023,0.9487305,-0.3215332,-32.9771,-248.1832,27.35114
0.0703125,0.9824219,-0.1801758,-25.17557,-212.687,47.92366
0.6748047,0.9418945,-0.2297363,-36.13741,-206.7634,15.16031
0.3349609,0.9118652,-0.1948242,-34.8855,-165.0763,-35.58015
-0.7207031,1.036377,0.71875,28.51908,102.1069,95.96947
0.1210938,0.6662598,-0.2346191,-15.41985,250.1298,39.49618
1.527588,1.344238,0.1826172,61.87023,123.9466,4.725191
0.3413086,0.7199707,-0.5881348,41.77863,250.1298,-29.56489
0.3146973,1.128174,-0.02563477,57.78626,192.0611,-28.70229
-0.07055664,0.9050293,-0.4707031,37.54962,250.1298,-45.64122
0.2314453,0.7858887,-0.6083984,40.22137,176.9771,-8.549619
-0.05639648,1.077393,0.03466797,21.35114,250.1298,-40.22901
0.192627,0.7512207,-0.4777832,20.09924,250.1298,-43.55725
0.07446289,1.175293,0.06689453,43.71756,222.4886,-10.49618
0.4438477,0.9211426,-0.2214355,10.23664,61.68702,5.374046
1.05835,1.007324,-0.3239746,1.40458,-59.0458,-51.66412
-0.1337891,1.018555,-0.4960938,-14.35114,5.458015,-84.46565
-1.125244,1.067139,-0.1550293,-7.045802,12.0687,28.70229
0.1953125,1.04248,-0.03979492,-7.061069,-6.267176,21.63359
0.1501465,0.939209,-0.1049805,-2.259542,-4.732824,23.77099
0.1955566,0.9555664,-0.1586914,2.80916,-2.091603,24.45038
0.2822266,0.9765625,-0.1884766,2.679389,0.03053435,17.96947
0.3049316,0.9279785,-0.262207,-1.366412,0.5267176,8.893129
0.3022461,0.967041,-0.2089844,-2.931298,0.3816794,-1.244275
0.2597656,0.9584961,-0.1723633,-4.40458,-0.648855,-7.229008
0.1179199,0.9689941,-0.2177734,0.2290076,-0.9541985,1.748092
0.1269531,0.9641113,-0.2148438,-1.740458,-0.4732824,2.389313
0.1657715,0.9726563,-0.1813965,-2.832061,-0.480916,2.022901
0.1716309,0.9655762,-0.1655273,-1.961832,-0.6183206,0.6870229
0.1777344,0.9758301,-0.1486816,-0.2748091,-0.5954198,-0.5572519
0.166748,0.9748535,-0.173584,0.778626,-0.6030535,-1.167939
0.145752,0.9699707,-0.2038574,0.259542,-0.6335878,-0.6717557
0.1381836,0.96875,-0.2150879,-0.9694656,-0.3587786,0.129771
0.135498,0.9772949,-0.1928711,-2.022901,-0.5343512,0.9389313
0.144043,0.9702148,-0.177002,-1.854962,-0.6335878,1.259542
0.1560059,0.9729004,-0.1616211,-0.6793893,-0.7251908,0.8396947
0.1713867,0.9672852,-0.1657715,0.1984733,-0.6335878,0.1832061
0.1674805,0.9741211,-0.1899414,-0.01526718,-0.5801527,-0.4656488
0.1530762,0.9699707,-0.1975098,-0.8549618,-0.4427481,-0.2824428
0.142334,0.973877,-0.1879883,-1.267176,-0.4351145,-0.06870229
0.1416016,0.9692383,-0.1762695,-0.8396947,-0.7328244,0.3435115
0.1477051,0.9743652,-0.1662598,-0.4274809,-0.6335878,0.9389313
0.1564941,0.96875,-0.1850586,-0.2290076,-0.5648855,0.7099237
0.1660156,0.9685059,-0.189209,-0.6335878,-0.5419847,0.259542
0.1638184,0.9711914,-0.1931152,-1.282443,-0.648855,-0.1526718
0.1530762,0.9658203,-0.1760254,-1.045802,-0.4732824,-0.03053435
0.1503906,0.9741211,-0.1682129,-0.870229,-0.610687,0.02290076
0.1479492,0.972168,-0.1774902,-0.6030535,-0.6564885,0.4122138
0.1508789,0.9692383,-0.1867676,-0.5648855,-0.5725191,0.4580153
0.1547852,0.9746094,-0.1784668,-0.8473283,-0.7328244,0.5114504
0.1601563,0.9672852,-0.1835938,-1.022901,-0.4427481,0.3053435
0.1574707,0.973877,-0.1821289,-1.022901,-0.5038168,0.1603053
0.1618652,0.989502,-0.09326172,0.8473283,0.6259542,0.1221374
0.1452637,0.939209,-0.2209473,-1.603053,-0.5343512,0.1984733
0.1401367,0.965332,-0.204834,-0.3129771,0.0610687,-0.4122138
0.1606445,0.9726563,-0.177002,-0.2061069,-0.6793893,0.2442748
0.1501465,0.9709473,-0.1884766,-1.0,-0.3587786,0.389313
0.15625,0.9748535,-0.1796875,-1.198473,-0.8015267,0.5496183
0.1547852,0.970459,-0.1809082,-0.5419847,-0.7099237,0.2900764
0.1520996,0.9836426,-0.171875,-0.3664122,-0.5267176,0.09923664
0.1540527,0.9699707,-0.1799316,-0.8091603,-0.5419847,0.2748091
0.1572266,0.9645996,-0.1906738,-0.8091603,-0.5877862,0.2366412
0.15625,0.9697266,-0.1860352,-0.9312977,-0.4961832,0.1526718
0.1501465,0.9733887,-0.1713867,-0.7862596,-0.5572519,0.3129771
0.1516113,0.9682617,-0.1821289,-0.8091603,-0.6793893,0.4961832
0.1621094,0.9685059,-0.1772461,-0.5725191,-0.6259542,0.3206107
0.15625,0.9719238,-0.1865234,-0.7328244,-0.6030535,0.02290076
ax,ay,az,gx,gy,gz
0.1535645,0.9631348,-0.1730957,-0.2213741,-0.1984733,0.1221374
0.1606445,0.9606934,-0.1411133,0.9083969,-0.1068702,0.01526718
0.1435547,0.9667969,-0.1784668,-1.251908,-33.31298,6.282443
0.2946777,0.9621582,-0.2087402,-8.419847,-111.4427,5.427481
0.2861328,0.9316406,-0.2348633,-19.38931,-201.5802,2.900763
0.3408203,0.9833984,-0.2097168,-28.9084,-249.8168,-22.79389
-0.1008301,0.9680176,-0.1633301,-32.32061,-248.1832,-0.1755725
-0.1027832,0.9487305,-0.1625977,-35.74809,-248.1832,15.55725
0.009277344,1.003418,-0.1259766,-34.0687,-248.1832,27.26718
0.07666016,1.042725,-0.01391602,-27.80153,-248.1832,28.12977
0.09521484,0.9321289,-0.3005371,-30.36641,-206.5496,27.53435
0.2487793,0.9819336,-0.394043,-29.87023,-243.8855,30.55725
0.4301758,0.9648438,-0.2363281,-34.0458,-245.3893,10.78626
0.3164063,0.869873,-0.3198242,-41.03817,-243.5038,1.80916
0.2277832,0.9611816,-0.1826172,-36.78626,-185.0458,-35.78626
-1.175537,0.9655762,0.5773926,24.78626,127.7939,97.86259
0.1337891,0.6733398,-0.2546387,-18.19084,250.1298,43.98473
1.147949,1.155273,0.1230469,61.22137,140.8397,9.099236
0.002197266,1.088135,0.4606934,37.52672,250.1298,13.91603
1.209229,0.6689453,-0.4387207,43.51145,250.1298,-26.22901
0.08056641,1.142822,0.08959961,76.54962,243.5954,-14.12214
0.6662598,0.8288574,-0.4567871,36.53435,248.8473,-53.32824
0.03515625,1.09668,-0.1813965,57.29008,250.1298,1.183206
0.3154297,1.044922,-0.1333008,33.76336,234.1679,-44.48855
0.0480957,1.087402,-0.1835938,9.122137,250.1298,-22.91603
-0.2021484,0.8979492,-0.1733398,-13.30534,-4.816794,23.23664
0.06396484,0.9416504,-0.1499023,-1.244275,-9.251908,25.48855
0.1455078,1.006104,-0.02319336,7.10687,-2.10687,28.70992
0.2780762,0.9265137,-0.2263184,1.725191,-0.07633588,23.33588
0.3417969,0.9655762,-0.2397461,1.053435,-0.5725191,14.58015
0.3430176,0.8901367,-0.2858887,-6.725191,-4.267176,4.045802
0.2766113,1.019775,-0.1298828,-1.465649,-0.4732824,-5.969466
0.2119141,0.9438477,-0.1352539,-3.312977,-0.1221374,-10.64886
0.1450195,0.9677734,-0.1533203,-0.6335878,-0.5038168,-10.91603
0.1235352,1.000977,-0.1247559,2.832061,-0.4427481,-9.923664
0.09521484,0.9655762,-0.1962891,-0.05343511,-1.366412,-5.244275
0.09594727,0.9631348,-0.1977539,0.519084,-0.610687,-2.572519
0.09936523,0.9777832,-0.1953125,-0.7022901,-0.2137404,0.480916
0.1142578,0.9729004,-0.1901855,-1.48855,-0.5572519,2.206107
0.1474609,0.9714355,-0.1882324,-2.152672,-0.2977099,2.48855
0.1665039,0.9702148,-0.168457,-1.40458,-0.6030535,1.328244
0.1818848,0.9682617,-0.1740723,-0.3816794,-0.5419847,-0.832061
0.1677246,0.9763184,-0.1689453,0.09923664,-0.6183206,-1.473282
0.1367188,0.967041,-0.1936035,0.1679389,-0.4122138,-0.7862596
0.1225586,0.9753418,-0.1987305,-0.5114504,-0.5496183,0.2748091
0.1257324,0.9711914,-0.1794434,-1.137405,-0.5496183,1.244275
0.1374512,0.9648438,-0.1794434,-1.480916,-0.8015267,1.335878
0.1533203,0.9746094,-0.1691895,-0.9389313,-0.4885496,0.9312977
0.1574707,0.9697266,-0.1750488,-0.6030535,-0.5954198,0.02290076
0.1625977,0.9638672,-0.1865234,-0.9007633,-0.6335878,-0.519084
0.1430664,0.9699707,-0.1799316,-0.7328244,-0.3435115,-0.389313
0.1394043,0.9716797,-0.1726074,-0.5801527,-0.4885496,0.1603053
0.1350098,0.9746094,-0.1745605,-0.7709923,-0.5496183,0.5496183
0.1381836,0.9697266,-0.1806641,-0.5877862,-0.7022901,0.7328244
0.1506348,0.9726563,-0.1801758,-0.5648855,-0.6717557,0.7557252
0.1525879,0.9733887,-0.1896973,-0.7557252,-0.5038168,0.1526718
0.1520996,0.9675293,-0.1804199,-0.9770992,-0.4885496,-0.09923664
0.1413574,0.9650879,-0.1706543,-0.740458,-0.5572519,-0.3435115
0.1469727,0.9758301,-0.1762695,-0.740458,-0.4503817,-0.01526718
0.1342773,0.9729004,-0.1750488,-0.6259542,-0.4656488,0.3816794
0.1396484,0.9777832,-0.1818848,-0.8854962,-0.6793893,0.6030535
0.1328125,0.9350586,-0.2810059,-4.08397,-1.229008,0.389313
0.1367188,0.953125,-0.2165527,-0.7099237,-0.3358779,0.0
0.1572266,0.9912109,-0.1442871,0.4198473,-1.068702,0.480916
0.1408691,0.9729004,-0.1801758,-1.114504,-0.7480916,0.2137404
0.1494141,0.9702148,-0.1809082,-1.015267,-0.519084,0.2061069
0.1420898,0.9833984,-0.1726074,-0.4427481,-0.4503817,0.03816794
0.1450195,0.9755859,-0.1777344,-0.5496183,-0.4656488,0.3129771
0.1442871,0.963623,-0.1855469,-0.778626,-0.3816794,0.3053435
0.1467285,0.9680176,-0.1918945,-0.5954198,-0.6946565,0.351145
0.1450195,0.9743652,-0.1816406,-0.4656488,-0.519084,0.4198473
0.1450195,0.9719238,-0.1828613,-0.9541985,-0.6564885,0.2671756
0.1469727,0.9709473,-0.1791992,-0.9770992,-0.5877862,0.05343511
0.1520996,0.973877,-0.1804199,-0.6946565,-0.5267176,0.08396947
0.1452637,0.965332,-0.1813965,-0.6335878,-0.4580153,0.2213741
ax,ay,az,gx,gy,gz
0.1376953,0.96875,-0.1643066,0.3435115,-0.2824428,0.3053435
0.1572266,0.9882813,-0.1342773,1.763359,-0.6870229,0.7557252
0.1542969,0.9819336,-0.1706543,-1.10687,-33.64122,3.450382
0.3034668,0.9345703,-0.234375,-8.870229,-111.1298,-2.137405
0.2817383,0.9350586,-0.2229004,-20.46565,-234.2214,8.427481
0.1848145,0.9628906,-0.326416,-33.32061,-233.5496,-23.03053
-0.08764648,0.9831543,-0.208252,-30.85496,-248.1832,5.931298
-0.1247559,0.9626465,-0.02929688,-39.34351,-248.1832,16.90076
-0.03320313,0.8798828,-0.2770996,-30.74809,-248.1832,25.89313
0.08227539,1.031982,-0.05517578,-28.67175,-248.1832,44.44275
0.2390137,0.9260254,-0.260498,-35.06107,-248.1832,31.83206
0.171875,1.039307,-0.1918945,-26.87023,-248.1832,27.87023
0.2617188,0.9697266,-0.2565918,-35.23664,-231.2824,25.83206
0.3835449,0.9230957,-0.2524414,-37.69466,-228.8855,10.38168
0.3117676,0.9714355,-0.1418457,-36.91603,-162.145,-24.03053
-0.5568848,0.9943848,0.8012695,21.61832,152.2672,95.25954
0.05151367,0.927002,-0.1357422,36.69466,250.1298,-17.00763
0.9211426,0.8686523,-0.4858398,60.49618,240.3969,-32.48092
0.01318359,0.9934082,-0.2180176,43.31298,229.3359,-22.69466
0.1564941,0.8398438,-0.4838867,24.41221,250.1298,-75.27481
0.01855469,1.060547,0.06640625,41.35115,199.6794,13.94656
0.159668,0.8491211,-0.2636719,-2.076336,250.1298,-67.53435
0.1828613,0.9870605,-0.2592773,53.16794,204.6718,-34.48855
-0.08349609,1.113525,0.2983398,40.54962,202.1527,-10.90076
0.114502,0.5866699,-0.4553223,14.51145,61.92366,13.57252
0.3981934,1.018799,-0.4428711,5.992366,-79.64122,-33.31298
-0.2009277,1.02002,-0.3081055,-7.709924,1.137405,4.961832
-0.1235352,0.8891602,-0.3310547,-24.50382,2.824427,28.0458
0.109375,1.040039,-0.04760742,-4.870229,-11.94656,26.35114
0.1647949,1.000244,-0.02636719,-4.580153,1.198473,26.0
0.2995605,0.9562988,-0.111084,3.244275,-1.473282,20.45038
0.3566895,0.9763184,-0.1831055,0.389313,1.923664,0.8091603
0.2822266,0.9360352,-0.2661133,-0.3358779,0.6946565,-7.0
0.1948242,0.9951172,-0.1630859,-2.335878,-0.2290076,-11.79389
0.1306152,0.9667969,-0.140625,-2.541985,-0.3587786,-11.8626
0.08520508,0.9858398,-0.123291,0.9389313,0.3969466,-7.51145
0.0637207,0.982666,-0.1716309,2.076336,-0.9847328,-2.282443
0.07885742,0.9716797,-0.2026367,0.8931297,-0.4961832,1.48855
0.1166992,0.9711914,-0.213623,-0.2213741,-0.480916,2.755725
0.1506348,0.9672852,-0.2011719,-2.152672,-0.8167939,2.541985
0.1687012,0.9648438,-0.1635742,-2.503817,-0.1908397,1.29771
0.1821289,0.9785156,-0.1489258,-1.312977,-0.6412213,-0.4656488
0.1677246,0.9716797,-0.1496582,0.259542,-0.6030535,-1.160305
0.1516113,0.9655762,-0.1765137,1.167939,-0.6946565,-1.152672
0.1293945,0.9677734,-0.1977539,0.3664122,-0.6946565,-0.4885496
0.121582,0.9672852,-0.2111816,-1.19084,-0.2671756,0.6412213
0.1364746,0.9692383,-0.1936035,-2.259542,-0.4580153,1.183206
0.1455078,0.9675293,-0.1713867,-1.923664,-0.5572519,0.9770992
0.1560059,0.9736328,-0.1538086,-0.8549618,-0.6564885,0.6030535
0.1564941,0.9733887,-0.1630859,0.2671756,-0.4198473,-0.2748091
0.1586914,0.9719238,-0.1962891,0.129771,-0.5267176,-0.5267176
0.1464844,0.9682617,-0.1867676,-0.9694656,-0.4885496,-0.2671756
0.1308594,0.9772949,-0.1838379,-1.480916,-0.4732824,0.2900764
0.1462402,0.9736328,-0.1699219,-1.129771,-0.5114504,0.5801527
0.1433105,0.9699707,-0.1552734,-0.4580153,-0.6641222,0.7938931
0.1513672,0.973877,-0.1721191,0.09923664,-0.5343512,0.4885496
0.1621094,0.9707031,-0.1862793,-0.2442748,-0.6335878,-0.007633588
0.1496582,0.9709473,-0.1943359,-0.7862596,-0.4045802,-0.259542
0.1430664,0.973877,-0.1860352,-1.129771,-0.3435115,-0.1526718
0.1379395,0.9724121,-0.1674805,-1.0,-0.5267176,0.3358779
0.137207,0.9797363,-0.1738281,-0.8244275,-0.4961832,0.6412213
0.1462402,0.9638672,-0.1755371,-0.4045802,-0.6335878,0.6335878
0.1547852,0.972168,-0.1828613,-0.6259542,-0.519084,0.4198473
0.1494141,0.9724121,-0.1936035,-0.7709923,-0.6259542,0.2366412
0.1552734,0.9709473,-0.1884766,-1.236641,-0.5038168,-0.03053435
0.1516113,0.9204102,-0.1132813,0.2519084,0.05343511,-0.03816794
0.1274414,0.9645996,-0.1804199,-0.007633588,0.129771,0.3969466
0.1437988,0.980957,-0.1567383,0.3435115,-0.8854962,0.09160305
0.1455078,0.9912109,-0.1638184,0.1908397,-0.648855,0.7022901
0.1459961,0.9707031,-0.1943359,-0.7251908,-0.5419847,0.2519084
0.1530762,0.9711914,-0.1794434,-0.740458,-0.7557252,0.2213741
0.144043,0.9694824,-0.182373,-0.9694656,-0.4580153,0.1374046
0.1494141,0.9650879,-0.1665039,-0.9465649,-0.5801527,0.389313
0.154541,0.9689941,-0.1743164,-0.6793893,-0.7480916,0.1679389
0.1464844,0.973877,-0.1740723,-0.1908397,-0.7480916,0.3053435
0.1394043,0.9682617,-0.1809082,-0.480916,-0.4885496,0.2671756
0.1447754,0.9694824,-0.1806641,-1.053435,-0.4351145,0.2824428
0.1472168,0.9716797,-0.1784668,-1.221374,-0.5877862,0.3206107
0.1474609,0.9724121,-0.1782227,-0.7633588,-0.5038168,0.3282443
ax,ay,az,gx,gy,gz
0.1494141,0.9736328,-0.1682129,-0.4427481,-0.6335878,0.2977099
0.1508789,0.9914551,-0.2717285,-3.122137,-1.221374,0.3740458
0.1230469,0.9365234,-0.2006836,-1.938931,-0.06870229,0.480916
0.1420898,0.9428711,-0.2006836,-1.793893,-32.13741,9.656488
-0.1330566,0.9106445,-0.2260742,-36.84733,-248.1832,16.98473
-0.0007324219,1.022217,-0.1992188,-34.09924,-248.1832,26.51908
0.1347656,0.9968262,-0.1318359,-33.0458,-248.1832,34.74809
0.2224121,0.9345703,-0.2973633,-35.83969,-248.1832,32.21374
0.1689453,0.9550781,-0.3256836,-35.83206,-248.1832,25.77099
0.02929688,0.967041,-0.2661133,-33.33588,-195.542,37.32824
0.380127,0.9111328,-0.421875,-40.87023,-203.5191,15.05344
0.5087891,0.9951172,-0.1420898,-38.1832,-248.1832,-2.267176
0.512207,0.8703613,-0.2126465,-47.22901,-248.1832,-19.36641
-0.1696777,1.140137,-0.03027344,-27.45802,-26.78626,-114.1832
-1.548096,1.319336,0.4677734,43.58015,101.4657,127.4351
0.3010254,0.8139648,0.02783203,-11.51145,250.1298,38.77099
0.9841309,0.9655762,-0.1120605,62.43512,133.7023,3.442748
0.07714844,1.181396,0.3190918,42.60305,250.1298,11.35878
0.416748,0.6848145,-0.5004883,37.0,250.1298,-18.56489
0.7185059,1.133301,-0.1740723,63.48855,216.4733,-27.86259
0.03710938,0.921875,-0.3972168,33.49618,250.1298,-55.51145
0.2663574,0.8662109,-0.4414063,34.32824,250.1298,-46.64122
0.2165527,1.045654,-0.1582031,42.37405,250.1298,-43.31298
-0.06323242,0.9050293,-0.2121582,31.23664,250.1298,-41.67939
0.3005371,0.9460449,-0.2526855,33.66412,197.0305,-33.61069
0.6870117,0.9350586,-0.3349609,15.40458,-4.328244,-53.67176
-0.1118164,0.8696289,-0.5693359,-12.09924,-61.07634,-62.32061
-0.5144043,1.046875,-0.3205566,-15.91603,-23.99237,-16.05343
-0.5869141,0.9912109,-0.1088867,-18.17557,10.89313,35.60305
0.2275391,0.9572754,-0.05786133,-9.030535,-18.83969,26.41221
0.09375,1.020508,0.06274414,6.923664,2.51145,30.28244
0.2890625,0.9211426,-0.1291504,7.053435,-4.70229,27.90076
0.3227539,0.9438477,-0.2375488,7.885496,-1.221374,21.96947
0.3493652,0.9248047,-0.2988281,1.129771,0.7862596,10.93893
0.3325195,0.9658203,-0.2709961,-3.847328,1.267176,-3.167939
0.2753906,0.9619141,-0.1542969,-6.068702,1.099237,-14.90076
0.1296387,0.996582,-0.078125,-2.19084,-0.2213741,-13.22137
0.07641602,0.9743652,-0.1203613,0.9389313,-0.5496183,-8.022901
0.04760742,0.9707031,-0.1816406,3.290076,-0.7328244,-0.6793893
0.09204102,0.9753418,-0.2084961,3.152672,-1.099237,2.221374
0.1230469,0.9689941,-0.2304688,-0.389313,-0.7633588,3.580153
0.1535645,0.9599609,-0.2363281,-3.175573,-0.3358779,3.099237
0.1855469,0.9724121,-0.1901855,-4.053435,-0.3587786,1.442748
0.1826172,0.9753418,-0.1306152,-2.480916,-0.5343512,-0.389313
0.166748,0.9731445,-0.1462402,0.05343511,-0.5496183,-1.038168
0.1430664,0.9750977,-0.1594238,1.679389,-0.4580153,-0.8167939
0.1311035,0.9770508,-0.1975098,0.8473283,-0.7175572,-0.01526718
0.1240234,0.9682617,-0.2089844,-0.8854962,-0.4580153,0.5572519
0.1435547,0.9645996,-0.2050781,-2.206107,-0.4732824,0.9923664
0.1538086,0.9760742,-0.1665039,-1.931298,-0.5038168,0.7328244
0.1577148,0.9716797,-0.1518555,-0.9541985,-0.5496183,0.4351145
0.1577148,0.9736328,-0.1640625,0.2748091,-0.6564885,0.04580153
0.1489258,0.9724121,-0.1984863,0.09923664,-0.389313,-0.2748091
0.140625,0.9709473,-0.2006836,-0.7251908,-0.3664122,0.05343511
0.1416016,0.973877,-0.1867676,-1.541985,-0.3664122,0.3282443
0.151123,0.9663086,-0.1638184,-1.206107,-0.7480916,0.480916
0.145752,0.9746094,-0.1625977,-0.2137404,-0.6183206,0.5572519
0.151123,0.9787598,-0.1855469,0.129771,-0.5648855,0.259542
0.154541,0.9755859,-0.171875,-0.3358779,-0.5648855,0.1145038
0.1552734,0.9667969,-0.192627,-1.274809,-0.5801527,-0.2061069
0.1484375,0.9719238,-0.1760254,-1.396947,-0.4351145,-0.007633588
0.145752,0.9763184,-0.1821289,-1.038168,-0.4732824,0.1984733
0.145752,0.9665527,-0.1728516,-0.4961832,-0.4656488,0.4198473
0.1484375,0.9675293,-0.1762695,-0.3206107,-0.4656488,0.6641222
0.1530762,0.9741211,-0.1962891,-0.6259542,-0.5343512,0.5343512
0.1540527,0.9667969,-0.1911621,-1.10687,-0.3129771,0.1603053
0.1479492,0.9494629,-0.1838379,-3.40458,-0.5877862,-0.6259542
0.1606445,0.9755859,-0.2006836,-1.755725,-0.1908397,0.129771
0.1386719,0.9516602,-0.1931152,-0.9694656,-0.1221374,0.4122138
0.1450195,0.9631348,-0.1621094,-0.07633588,-0.832061,0.3435115
0.1550293,0.9714355,-0.182373,-0.778626,-0.4656488,0.5419847
0.1523438,0.9763184,-0.1850586,-0.3816794,-0.4885496,0.3053435
0.1401367,0.9790039,-0.1779785,-0.480916,-0.4045802,0.610687
0.1467285,0.9697266,-0.1901855,-1.030534,-0.6030535,0.3816794
0.154541,0.9677734,-0.1855469,-1.022901,-0.480916,0.2900764
0.1574707,0.9768066,-0.1706543,-0.9541985,-0.4961832,0.1145038
ax,ay,az,gx,gy,gz
0.1442871,0.9685059,-0.1813965,-0.5496183,-0.5114504,-0.09160305
0.1364746,1.033203,-0.2167969,0.2290076,-0.7022901,0.3969466
0.1210938,0.9526367,-0.1972656,-1.618321,0.6870229,0.5038168
0.1408691,0.8964844,-0.2121582,-2.419847,-18.9084,5.465649
0.3056641,0.9421387,-0.2182617,-7.183206,-109.3206,4.519084
0.302002,0.9182129,-0.246582,-19.46565,-215.8244,-5.656488
0.1359863,0.9973145,-0.3134766,-28.85496,-248.1832,-25.83206
-0.2392578,1.042969,-0.1054688,-31.09924,-242.1374,-5.167939
-0.0534668,0.940918,-0.2080078,-37.61069,-248.1832,18.38931
0.1621094,1.054932,-0.09863281,-34.38931,-248.1832,24.25191
0.1147461,0.9643555,-0.1118164,-33.52672,-248.1832,27.0687
0.1530762,0.9355469,-0.2680664,-29.86259,-248.1832,27.63359
0.114502,0.9829102,-0.3618164,-29.74809,-237.8397,32.87786
0.2851563,0.9379883,-0.3508301,-36.22901,-186.7099,8.106871
-0.3952637,1.041992,0.2316895,-1.755725,167.2595,95.30534
0.296875,0.6074219,-0.2832031,-14.64886,237.1756,32.35878
1.026611,1.347168,0.4816895,63.96947,166.9084,-3.236641
0.1477051,0.8027344,0.001464844,15.82443,250.1298,-56.55725
0.1169434,0.8215332,-0.078125,84.49619,179.2748,32.70992
0.08691406,0.9990234,0.05517578,47.0,247.7939,-7.938931
0.5073242,0.7932129,-0.5461426,48.47328,250.1298,-59.26717
-0.01757813,1.038818,-0.1567383,64.89313,240.6488,5.923664
1.169678,0.90625,-0.5090332,25.81679,250.1298,-74.16794
0.0234375,1.081055,-0.03686523,39.90076,220.8779,-7.625954
0.08764648,0.8991699,-0.1608887,13.51145,250.1298,-29.8855
0.2226563,0.9851074,-0.1403809,22.16031,112.5191,2.10687
1.067627,1.137451,-0.1196289,7.267176,-35.22137,-45.27481
-0.1069336,0.9414063,-0.3381348,-7.274809,-62.0916,-60.54198
-0.8894043,0.9724121,-0.1882324,-10.78626,9.908397,30.79389
0.2731934,1.016602,-0.06713867,-5.160306,-10.74046,26.98473
0.125,0.9731445,-0.06738281,-0.4274809,-1.076336,29.55725
0.2900391,0.9953613,-0.1582031,5.854962,-2.557252,28.77863
0.3344727,0.9663086,-0.2150879,4.259542,0.3358779,20.75573
0.3564453,0.9238281,-0.2785645,-1.038168,0.8549618,8.725191
0.3347168,0.9729004,-0.2382813,-3.48855,1.0,-4.091603
0.2775879,0.9545898,-0.1779785,-5.587786,0.2519084,-12.19084
0.1730957,0.9714355,-0.1289063,-3.175573,0.8015267,-13.73282
0.1433105,0.970459,-0.1176758,-0.007633588,-0.2977099,-14.25954
0.07177734,0.9763184,-0.1462402,2.152672,0.1526718,-8.526717
0.06469727,0.9892578,-0.1774902,2.59542,-1.473282,-3.801527
0.0690918,0.9665527,-0.2067871,1.442748,-0.6641222,0.1603053
0.09594727,0.9675293,-0.2163086,-0.06870229,-0.7709923,2.267176
0.130127,0.9724121,-0.2211914,-2.335878,-0.3358779,2.145038
0.1755371,0.9682617,-0.1560059,-2.908397,-0.351145,1.061069
0.1787109,0.9746094,-0.1379395,-1.045802,-0.4885496,-0.5114504
0.1599121,0.96875,-0.1574707,1.076336,-0.7633588,-1.137405
0.1430664,0.96875,-0.1921387,1.175573,-0.6793893,-0.7557252
0.1228027,0.9702148,-0.2126465,-0.5343512,-0.3358779,0.259542
0.1333008,0.9729004,-0.2067871,-2.076336,-0.4427481,0.7633588
0.1403809,0.9794922,-0.175293,-2.221374,-0.4045802,1.175573
0.1516113,0.9750977,-0.1582031,-1.175573,-0.6335878,0.7633588
0.1625977,0.9748535,-0.1677246,-0.1832061,-0.5114504,0.1526718
0.1523438,0.9663086,-0.1816406,0.1068702,-0.5725191,-0.1679389
0.1462402,0.9694824,-0.2011719,-0.610687,-0.519084,-0.1755725
0.1435547,0.9682617,-0.1923828,-1.412214,-0.6793893,-0.03816794
0.1357422,0.9719238,-0.1711426,-1.358779,-0.610687,0.3816794
0.152832,0.9758301,-0.1716309,-0.7938931,-0.6335878,0.519084
0.1425781,0.9711914,-0.173584,-0.2671756,-0.870229,0.5038168
0.1484375,0.9682617,-0.189209,-0.0610687,-0.610687,0.3740458
0.1489258,0.970459,-0.1872559,-0.5038168,-0.4885496,0.02290076
0.1472168,0.9675293,-0.1821289,-1.122137,-0.5496183,0.01526718
0.1391602,0.9748535,-0.1894531,-1.374046,-0.4351145,0.129771
0.1484375,0.9768066,-0.1669922,-0.8854962,-0.6259542,0.2748091
0.1503906,0.923584,-0.251709,-2.534351,-0.6412213,-0.4961832
0.15625,1.020508,-0.1533203,0.389313,-0.9389313,0.6641222
0.1376953,0.9887695,-0.1679688,-0.8396947,-0.8015267,0.04580153
0.144043,0.9716797,-0.1870117,-0.7862596,-0.3740458,0.4427481
0.1450195,0.9763184,-0.1782227,-0.3816794,-0.5496183,0.3435115
0.1396484,0.9724121,-0.1806641,-0.5725191,-0.8015267,0.3587786
0.1508789,0.9694824,-0.1789551,-1.175573,-0.4198473,0.09160305
0.1496582,0.9648438,-0.1843262,-0.8931297,-0.6564885,0.007633588
0.142334,0.9733887,-0.173584,-0.6793893,-0.6259542,0.09923664
0.1433105,0.9765625,-0.1682129,-0.3129771,-0.5648855,0.3358779
0.1523438,0.973877,-0.1708984,-0.610687,-0.5267176,0.3129771
0.1442871,0.9702148,-0.1813965,-0.5343512,-0.5954198,0.4503817
0.1464844,0.9697266,-0.1804199,-0.7633588,-0.648855,0.3816794
0.1489258,0.9699707,-0.1774902,-0.9312977,-0.6183206,0.2671756
ax,ay,az,gx,gy,gz
0.1462402,0.9682617,-0.1774902,-0.9389313,-0.6030535,0.3206107
0.1428223,1.055176,-0.1328125,2.709924,-0.5114504,0.5267176
0.1484375,1.013672,-0.171875,-0.8854962,-0.8625955,-0.1526718
0.2387695,0.9763184,-0.2058105,-3.114504,-42.24427,2.954198
0.3234863,0.9367676,-0.2963867,-13.56489,-133.5954,-5.259542
0.3291016,0.989502,-0.2834473,-20.96947,-238.3969,-9.938931
-0.07226563,0.9855957,-0.229248,-32.1832,-237.6718,-15.94656
-0.1904297,0.935791,-0.2592773,-38.03053,-248.1832,11.9313
-0.1071777,0.9714355,-0.09814453,-34.84733,-248.1832,36.70229
0.1000977,0.9138184,-0.1430664,-39.25191,-248.1832,26.70229
0.1391602,1.005127,-0.1628418,-28.35114,-248.1832,31.29008
0.1638184,0.9956055,-0.2380371,-29.9771,-248.1832,32.24427
0.2546387,0.9394531,-0.3425293,-35.71756,-248.1832,22.38931
0.3591309,0.984375,-0.260498,-35.78626,-230.3893,11.43511
-0.456543,1.062012,0.1894531,-21.57252,187.2366,86.24428
0.2365723,0.6315918,-0.4294434,-15.37405,250.1298,61.0458
1.165527,1.300049,0.3479004,51.54198,160.0153,-2.129771
0.09399414,0.7912598,0.09594727,16.58015,250.1298,-45.37405
0.2888184,0.8632813,-0.1120605,74.29771,183.8244,-13.90076
0.2084961,1.122803,-0.1582031,75.229,224.2672,-32.67939
-0.07055664,0.9616699,-0.3815918,49.03817,250.1298,-50.29771
0.170166,0.8898926,-0.5134277,48.77863,204.9084,-16.05343
-0.04321289,0.8227539,-0.4353027,23.76336,250.1298,-63.65649
0.1879883,0.9655762,-0.4260254,26.87023,250.1298,-44.23664
0.114502,0.9731445,-0.1132813,24.05343,244.2824,-20.19084
0.4807129,0.8703613,-0.2626953,10.75572,62.14504,-46.57252
0.1166992,1.034912,-0.3027344,0.09923664,-56.08397,-54.0229
-0.1950684,1.047363,-0.2758789,-10.30534,-63.52672,-47.03053
-1.197021,0.9404297,-0.2265625,-15.31298,27.76336,45.32061
0.2973633,0.9990234,-0.08496094,-4.870229,-11.67939,28.31298
0.1259766,0.996582,-0.04003906,2.358779,-0.5725191,30.0229
0.260498,0.9836426,-0.1877441,6.427481,-2.709924,30.87786
0.3413086,0.9599609,-0.2263184,4.091603,0.08396947,22.23664
0.3554688,0.9223633,-0.265625,-0.5038168,0.4274809,10.70992
0.3347168,0.9682617,-0.2333984,-4.030534,1.839695,-3.007634
0.284668,0.9584961,-0.171875,-5.793893,0.2366412,-12.64886
0.1647949,0.9804688,-0.1120605,-2.412214,1.152672,-15.1145
0.1340332,0.9729004,-0.135498,-0.1603053,-1.557252,-13.9542
0.07177734,0.9685059,-0.1604004,2.396947,0.1526718,-8.099236
0.06762695,0.9838867,-0.1796875,2.70229,-1.099237,-2.984733
0.0715332,0.9719238,-0.2053223,1.305344,-0.6641222,0.8167939
0.1044922,0.9658203,-0.2312012,-0.5343512,-0.6946565,2.931298
0.1396484,0.9714355,-0.2133789,-2.419847,-0.3587786,3.229008
0.1635742,0.9648438,-0.1831055,-3.152672,-0.3206107,2.282443
0.1845703,0.9741211,-0.1486816,-1.984733,-0.4732824,0.2290076
0.1760254,0.9736328,-0.1525879,-0.4580153,-0.6564885,-1.137405
0.1557617,0.9755859,-0.1618652,1.282443,-0.5725191,-1.160305
0.1252441,0.9689941,-0.1914063,0.4732824,-0.5954198,-0.5038168
0.128418,0.9648438,-0.2126465,-0.7328244,-0.6717557,0.3435115
0.1496582,0.967041,-0.1801758,-1.916031,-0.6335878,1.038168
0.1555176,0.9743652,-0.1503906,-1.0,-0.5038168,0.6717557
0.1525879,0.9733887,-0.1723633,-0.3129771,-0.4503817,-0.01526718
0.1503906,0.972168,-0.1813965,-0.2366412,-0.4961832,-0.129771
0.1445313,0.9733887,-0.1713867,-0.351145,-0.648855,0.6946565
0.1542969,0.9692383,-0.1755371,-0.08396947,-0.7022901,0.4045802
0.1462402,0.9689941,-0.1867676,-0.3282443,-0.3587786,0.1221374
0.1520996,0.9709473,-0.1887207,-0.8549618,-0.519084,-0.03053435
0.1369629,0.9716797,-0.1911621,-1.366412,-0.351145,0.1221374
0.1357422,0.9719238,-0.1743164,-1.175573,-0.3816794,0.351145
0.1462402,0.9729004,-0.1674805,-0.8549618,-0.4351145,0.5496183
0.1374512,0.9538574,-0.2973633,-5.167939,-1.366412,0.5801527
0.161377,0.9309082,-0.2746582,-1.687023,-0.1908397,-0.2824428
0.173584,1.025635,-0.1552734,0.9312977,-0.7480916,0.4351145
0.1396484,0.9880371,-0.1884766,-0.4198473,-0.6717557,-0.1755725
0.1350098,0.9731445,-0.1901855,-1.267176,-0.3206107,0.09160305
0.1359863,0.9672852,-0.1706543,-1.038168,-0.5343512,0.5343512
0.1452637,0.9729004,-0.1723633,-0.7557252,-0.6564885,0.4732824
0.1506348,0.9631348,-0.189209,-0.740458,-0.5648855,0.4351145
0.151123,0.9726563,-0.1877441,-0.7175572,-0.5725191,0.2061069
0.1520996,0.9638672,-0.1872559,-0.8854962,-0.480916,-0.09923664
0.1452637,0.973877,-0.1821289,-1.022901,-0.4198473,0.129771
0.1364746,0.9689941,-0.1848145,-0.778626,-0.5267176,0.3053435
0.1418457,0.9667969,-0.1733398,-0.6564885,-0.6946565,0.5496183
ax,ay,az,gx,gy,gz
0.1469727,0.9553223,-0.2038574,-2.160305,-0.3740458,0.2977099
0.1621094,0.927002,-0.1904297,-2.381679,-0.5954198,0.7175572
0.2924805,0.9560547,-0.2263184,-2.587786,-50.9771,1.160305
0.3273926,0.9572754,-0.2851563,-14.59542,-137.0382,-4.114504
0.3225098,0.9797363,-0.3168945,-26.03053,-248.1832,-19.58015
-0.1450195,1.005127,-0.2316895,-31.65649,-238.4351,-15.43511
-0.09277344,0.9765625,-0.199707,-34.83206,-248.1832,15.08397
0.02734375,0.9370117,-0.1691895,-38.55725,-248.1832,28.38931
0.06469727,0.9467773,-0.1501465,-35.45802,-248.1832,27.28244
0.1169434,0.9638672,-0.1340332,-27.69466,-248.1832,30.73282
0.1259766,0.9621582,-0.2873535,-31.19847,-248.1832,32.51145
0.2841797,0.9523926,-0.3571777,-36.12977,-248.1832,24.83969
0.4423828,0.9316406,-0.3200684,-40.09924,-248.1832,12.89313
0.1367188,0.9536133,-0.2053223,-40.52672,-213.5878,7.641222
-0.3273926,1.079346,0.1152344,-30.0229,195.1298,-29.63359
0.3769531,0.8056641,-0.2172852,6.160306,112.9466,66.58015
0.2849121,1.295166,0.7128906,43.93893,186.6031,51.9084
0.7473145,0.5322266,-0.2341309,18.51145,248.5191,-28.41985
0.1628418,1.174316,0.1477051,84.28244,174.4275,-21.22137
0.09448242,0.9077148,-0.1496582,34.49618,250.1298,-44.74809
0.1638184,0.7873535,-0.5698242,66.30534,223.7557,-29.32825
0.01171875,0.9152832,-0.2617188,32.98473,250.1298,-23.32061
0.2434082,0.8706055,-0.5146484,29.09924,250.1298,-62.35115
0.04101563,1.036865,-0.1040039,41.16031,224.9084,7.0
0.3876953,0.7612305,-0.3376465,5.580153,71.32825,-54.58779
0.2277832,0.9831543,-0.3862305,-9.244275,-41.64122,-65.68702
-0.2036133,1.045654,-0.3356934,-13.03817,-45.21374,-54.76336
-0.6867676,0.9736328,-0.1970215,-13.70229,-55.74046,10.29008
-0.3623047,1.012451,-0.05566406,-14.36641,-3.335878,30.45802
0.0847168,1.006836,0.05834961,1.870229,-7.0,39.53435
0.2297363,0.9694824,-0.0324707,11.0916,-3.954198,33.41221
0.2888184,0.920166,-0.2336426,11.41985,-0.2824428,35.33588
0.3266602,0.9091797,-0.322998,6.091603,1.519084,31.18321
0.498291,0.9855957,-0.3520508,-4.450382,-1.862595,-4.08397
0.2424316,0.9362793,-0.276123,-10.21374,4.534351,-10.52672
0.2419434,0.9868164,-0.1328125,-7.648855,-0.007633588,-15.53435
0.1162109,0.980957,-0.08251953,-5.450382,2.183206,-14.87023
0.1010742,0.9831543,-0.07958984,0.778626,-0.4274809,-10.69466
0.02905273,0.979248,-0.1264648,4.328244,-0.6030535,-2.923664
0.05981445,0.9848633,-0.1716309,5.221374,-1.450382,1.007634
0.08813477,0.9602051,-0.2358398,2.412214,-0.9083969,3.496183
0.1433105,0.9602051,-0.2546387,-0.6564885,-0.6030535,3.664122
0.1748047,0.9682617,-0.2119141,-3.931298,-0.4045802,2.793893
0.1896973,0.9655762,-0.1757813,-4.374046,-0.2824428,0.480916
0.1774902,0.96875,-0.1350098,-2.541985,-0.5801527,-0.610687
0.1621094,0.9755859,-0.1320801,0.08396947,-0.4503817,-1.221374
0.1403809,0.9731445,-0.1796875,1.916031,-0.5648855,-0.7251908
0.159668,0.9714355,-0.1611328,-1.954198,-0.5419847,0.4351145
0.1628418,0.9675293,-0.1535645,-0.2671756,-0.6335878,-0.2290076
0.1535645,0.9716797,-0.1687012,0.740458,-0.4274809,-0.4580153
0.1411133,0.9663086,-0.1977539,0.3053435,-0.5572519,0.0
0.1381836,0.9697266,-0.2038574,-0.9847328,-0.5954198,0.5725191
0.1416016,0.9699707,-0.2016602,-2.007634,-0.4198473,0.8244275
0.1469727,0.9709473,-0.1738281,-1.916031,-0.6564885,0.5343512
0.1601563,0.972168,-0.1591797,-0.7709923,-0.5267176,0.259542
0.15625,0.9685059,-0.1630859,0.3358779,-0.7022901,-0.03816794
0.1564941,0.9733887,-0.1831055,0.5038168,-0.7633588,-0.1908397
0.1489258,0.9663086,-0.1916504,-0.2061069,-0.5954198,0.09923664
0.1447754,0.9711914,-0.2006836,-1.427481,-0.4351145,0.1068702
0.1499023,0.9741211,-0.1782227,-1.580153,-0.351145,0.3435115
0.1445313,0.9797363,-0.1633301,-0.9083969,-0.5343512,0.4198473
0.1535645,0.9675293,-0.1738281,-0.3740458,-0.6641222,0.4961832
0.15625,0.9750977,-0.1835938,0.01526718,-0.5877862,0.1526718
0.152832,0.8637695,-0.217041,-3.122137,-0.2137404,-0.3435115
0.1240234,0.9462891,-0.1655273,-1.198473,-0.1603053,0.8091603
0.1555176,0.9404297,-0.1816406,-1.328244,-0.740458,-0.2213741
0.1491699,0.9934082,-0.161377,-0.2290076,-0.9236641,0.480916
0.1450195,0.9785156,-0.1550293,0.2519084,-0.4198473,0.3816794
0.1474609,0.9724121,-0.1694336,-0.1984733,-0.480916,0.4656488
0.1542969,0.9731445,-0.1789551,-0.2671756,-0.4351145,0.01526718
0.1540527,0.963623,-0.1911621,-1.335878,-0.519084,0.09923664
0.1538086,0.9658203,-0.1882324,-1.442748,-0.4427481,0.08396947
0.1489258,0.9694824,-0.173584,-1.0,-0.5877862,0.2061069
0.1464844,0.9731445,-0.1774902,-0.6183206,-0.4580153,0.1832061
0.1481934,0.9765625,-0.1765137,-0.2519084,-0.7022901,0.2671756
0.1435547,0.9726563,-0.1818848,-0.1450382,-0.6793893,0.389313
0.151123,0.9663086,-0.1862793,-0.5343512,-0.6717557,0.4427481
ax,ay,az,gx,gy,gz
0.1496582,0.965332,-0.1889648,-0.9770992,-0.519084,0.1679389
0.1364746,0.9160156,-0.2927246,-4.389313,-1.167939,-0.2977099
0.2973633,0.9924316,-0.1933594,-2.335878,-33.68702,-2.923664
0.4208984,0.989502,-0.1760254,-12.83969,-199.4351,-16.9542
-0.02270508,0.9880371,-0.2905273,-31.48092,-248.1832,-32.24427
-0.2507324,1.057373,-0.1357422,-28.57252,-226.5496,-5.137404
-0.02148438,0.9628906,-0.2421875,-42.0229,-248.1832,17.0
0.01245117,1.054932,0.01220703,-27.41985,-248.1832,32.12977
0.1787109,1.000977,-0.01342773,-29.32061,-248.1832,49.56488
0.3200684,0.970459,-0.2602539,-30.82443,-248.1832,20.03817
0.0925293,1.017334,-0.1965332,-26.19847,-248.1832,24.9084
0.4111328,1.010254,-0.2312012,-31.59542,-248.1832,18.96183
0.1201172,0.9174805,-0.2490234,-39.19084,-248.1832,15.32061
0.282959,0.9208984,-0.2094727,-41.55725,-248.1832,4.007634
-0.09960938,1.142578,-0.3083496,-39.29771,130.8092,-59.67939
-0.1315918,1.142578,0.08691406,23.27481,136.084,82.80916
0.295166,0.9575195,0.4406738,22.49618,194.2977,87.52672
0.7553711,0.677002,-0.01953125,22.62595,171.0534,-7.59542
0.03833008,1.102051,0.2258301,63.8168,232.6183,-4.847328
0.05004883,0.855957,-0.2060547,44.03053,250.1298,-0.4045802
0.7702637,0.8681641,-0.3605957,54.64122,245.0534,-37.73283
0.0144043,0.963623,-0.2878418,47.87786,250.1298,-19.21374
0.2275391,0.8317871,-0.496582,26.58779,228.2366,-43.0458
0.06787109,1.026123,-0.126709,29.62595,250.1298,-43.82443
-0.09033203,0.9501953,-0.03198242,23.38168,250.1298,-4.503817
0.5334473,0.9016113,-0.1203613,21.55725,149.4351,-39.55725
0.2509766,1.050293,-0.2832031,9.748092,-1.48855,-42.75573
-0.2114258,0.9899902,-0.3747559,-5.671756,-14.50382,-60.80153
-0.7231445,0.9543457,-0.2502441,-9.427481,-41.13741,19.85496
-0.08642578,0.987793,-0.1342773,-15.87023,-58.35878,29.00763
0.01831055,0.963623,-0.1381836,-11.39695,-12.87786,33.65649
0.1594238,1.030518,0.01782227,6.519084,1.007634,48.39695
0.2780762,0.9248047,-0.1887207,2.198473,1.717557,49.17557
0.3393555,0.9726563,-0.2250977,6.816794,5.603054,20.94657
0.4951172,0.9367676,-0.2409668,4.152672,-3.534351,-4.885496
0.2797852,0.9450684,-0.265625,-2.992366,0.02290076,-10.0458
0.2446289,0.9543457,-0.2158203,-5.145038,0.9160305,-16.56489
0.04907227,0.9841309,-0.1713867,3.396947,-1.129771,1.0
0.078125,0.9772949,-0.213623,2.114504,-0.9389313,4.10687
0.1257324,0.9624023,-0.2185059,-0.1679389,-0.519084,5.061069
0.1804199,0.9638672,-0.2189941,-2.770992,-0.4122138,3.236641
0.197998,0.9702148,-0.1772461,-3.358779,-0.4885496,0.6564885
0.1813965,0.9748535,-0.152832,-2.358779,-0.519084,-1.152672
0.161377,0.973877,-0.1433105,-0.5114504,-0.4351145,-1.770992
0.1369629,0.9733887,-0.1662598,0.9923664,-0.3969466,-1.122137
0.1169434,0.9689941,-0.1879883,0.8091603,-0.5877862,0.4732824
0.1269531,0.9716797,-0.2080078,-0.5877862,-0.519084,1.381679
0.1430664,0.9702148,-0.1833496,-1.40458,-0.7251908,1.435114
0.1604004,0.9689941,-0.1806641,-1.725191,-0.8015267,0.6412213
0.1704102,0.9714355,-0.1730957,-1.198473,-0.5496183,-0.3206107
0.1572266,0.9729004,-0.1706543,-0.2977099,-0.351145,-0.5877862
0.1452637,0.9736328,-0.1940918,-0.3282443,-0.4580153,-0.2519084
0.1330566,0.9709473,-0.1901855,-0.5572519,-0.4656488,0.3282443
0.1416016,0.9714355,-0.192627,-1.022901,-0.4961832,0.9236641
0.1474609,0.9755859,-0.1730957,-1.343511,-0.5267176,0.8015267
0.1574707,0.972168,-0.1799316,-0.5801527,-0.7022901,0.05343511
0.154541,0.973877,-0.170166,-0.2824428,-0.7480916,-0.09160305
0.1425781,0.9658203,-0.1811523,-0.2519084,-0.4961832,-0.1679389
0.1411133,0.9731445,-0.1860352,-0.6564885,-0.5725191,0.1679389
0.1459961,0.973877,-0.1955566,-1.129771,-0.5343512,0.2671756
0.1437988,0.9748535,-0.1787109,-1.381679,-0.4961832,0.5954198
0.1398926,0.9716797,-0.1828613,-1.114504,-0.5343512,0.3969466
0.1506348,0.9711914,-0.1748047,-0.6335878,-0.5801527,0.2213741
0.151123,0.9760742,-0.182373,-0.389313,-0.5954198,0.1221374
0.1501465,0.9941406,-0.2050781,2.40458,-0.778626,0.129771
0.137207,0.9814453,-0.2119141,-1.251908,-0.7175572,0.07633588
0.1325684,0.9506836,-0.2021484,-1.19084,-0.3053435,0.6717557
0.1469727,0.9614258,-0.1806641,-0.9160305,-0.6259542,0.2748091
0.1472168,0.9716797,-0.1750488,-0.8396947,-0.4580153,0.4580153
0.1484375,0.9760742,-0.1899414,-0.6793893,-0.6030535,0.2442748
0.1479492,0.9770508,-0.1958008,-0.7099237,-0.7557252,0.08396947
0.1469727,0.9726563,-0.1728516,-0.8091603,-0.3435115,0.007633588
0.1437988,0.9714355,-0.1706543,-0.7251908,-0.4427481,0.1603053
0.1418457,0.9736328,-0.1801758,-0.648855,-0.6259542,0.3435115
0.1462402,0.9741211,-0.1723633,-0.4732824,-0.648855,0.2824428
0.1547852,0.970459,-0.1870117,-0.5038168,-0.5267176,0.351145
ax,ay,az,gx,gy,gz
0.1518555,0.9682617,-0.1860352,-0.832061,-0.5954198,0.2366412
0.1450195,0.9455566,-0.3063965,-5.564886,-0.9389313,0.2900764
0.121582,0.8876953,-0.3276367,-6.465649,-0.7862596,-0.03816794
0.222168,0.9282227,-0.2387695,-4.152672,-66.62595,-3.351145
0.3254395,0.9528809,-0.2404785,-14.94656,-180.3435,-17.27481
0.07250977,0.9699707,-0.3994141,-34.61069,-236.4809,-33.34351
-0.2272949,1.059814,-0.2006836,-28.30534,-206.6641,-15.75572
0.05151367,1.002441,-0.1730957,-37.58015,-248.1832,6.236641
0.05664063,1.086426,0.001708984,-33.70992,-248.1832,18.58015
0.0078125,0.8898926,-0.1108398,-32.96183,-248.1832,27.29008
0.09008789,0.9780273,-0.1601563,-23.61069,-248.1832,29.14504
0.1760254,0.9914551,-0.217041,-24.0,-248.1832,48.55725
0.3339844,0.9379883,-0.359375,-36.38168,-248.1832,16.30534
0.6433105,0.9401855,-0.2558594,-32.61832,-248.1832,-0.6717557
-0.04394531,0.9814453,-0.138916,-45.64122,-232.7939,-12.01527
-0.4108887,1.062256,0.04833984,-36.39695,142.916,19.23664
0.2929688,0.9584961,-0.01928711,15.87786,161.2366,50.71756
0.3710938,1.009033,0.4121094,39.51145,149.3893,76.25954
0.135498,0.777832,0.01489258,16.45802,250.1298,3.816794
0.8037109,0.9182129,-0.1032715,64.87023,183.6794,-15.22901
-0.009033203,1.077148,0.1096191,54.26717,242.771,5.603054
0.442627,0.8356934,-0.5761719,44.82443,250.1298,-54.67176
0.05371094,0.9675293,-0.3466797,53.32824,250.1298,5.099236
0.3540039,0.8774414,-0.4851074,25.32061,250.1298,-42.60305
0.2827148,1.051025,-0.3193359,26.78626,239.855,-30.06107
0.8068848,0.9416504,-0.3564453,5.610687,57.0458,-60.57252
-0.02880859,1.065918,-0.2646484,-9.091603,-15.80916,-72.94656
-0.3239746,0.9851074,-0.1672363,-13.59542,-16.80916,-27.32825
-0.04077148,0.9758301,-0.05517578,14.29771,8.587787,33.82443
0.2697754,0.901123,-0.3039551,9.473283,-2.412214,47.19847
0.3027344,0.9306641,-0.3283691,2.343511,9.374045,19.79389
0.5219727,0.9240723,-0.3486328,-5.885496,-8.465649,-10.38168
0.2026367,0.9772949,-0.192627,-10.90076,1.832061,-12.63359
0.1901855,0.9509277,-0.1328125,-8.496183,0.4122138,-15.47328
0.06762695,1.005371,-0.0456543,-1.671756,0.7557252,-10.44275
0.05200195,0.9870605,-0.07763672,3.374046,-0.870229,-5.923664
0.02636719,0.9775391,-0.1484375,5.450382,-1.061069,0.5648855
0.06591797,0.9824219,-0.2167969,4.877862,-1.183206,4.290076
0.1179199,0.9677734,-0.2700195,-0.2137404,-1.10687,6.022901
0.1748047,0.9709473,-0.2441406,-3.374046,-0.5954198,3.656489
0.1899414,0.9638672,-0.1943359,-5.007634,-0.09160305,1.167939
0.1911621,0.967041,-0.1345215,-3.862595,-0.1679389,-0.9236641
0.1616211,0.9780273,-0.1188965,-0.5648855,-0.480916,-1.862595
0.1289063,0.9777832,-0.1459961,1.51145,-0.7633588,-1.320611
0.1140137,0.9736328,-0.1899414,1.969466,-0.9541985,0.06870229
0.1225586,0.9711914,-0.2197266,-0.03816794,-0.740458,1.267176
0.1411133,0.9736328,-0.2111816,-1.687023,-0.6641222,1.183206
0.1623535,0.9750977,-0.171875,-2.480916,-0.5954198,0.2290076
0.1606445,0.9707031,-0.1655273,-1.725191,-0.389313,-0.4122138
0.1506348,0.973877,-0.1533203,-0.4503817,-0.5343512,-0.5877862
0.1337891,0.9716797,-0.1750488,0.2137404,-0.6717557,-0.1526718
0.1242676,0.9772949,-0.1950684,-0.03816794,-0.6564885,0.4503817
0.1367188,0.9714355,-0.1928711,-0.9923664,-0.5877862,1.083969
0.1425781,0.96875,-0.1894531,-1.603053,-0.4503817,0.9083969
0.1552734,0.9658203,-0.1630859,-1.244275,-0.610687,0.007633588
0.152832,0.9702148,-0.171875,-0.4732824,-0.7633588,-0.3206107
0.1430664,0.9763184,-0.1723633,-0.007633588,-0.5267176,-0.4427481
0.1359863,0.9624023,-0.1743164,-0.07633588,-0.4427481,0.2213741
0.1296387,0.9697266,-0.1948242,-0.7862596,-0.5267176,0.5801527
0.1347656,0.9702148,-0.1870117,-1.564886,-0.4961832,0.832061
0.1464844,0.970459,-0.1748047,-1.343511,-0.4656488,0.610687
0.1518555,0.9733887,-0.1660156,-0.7862596,-0.5114504,-0.1221374
0.1520996,0.9716797,-0.1740723,-0.1221374,-0.7557252,-0.1068702
0.138916,0.9707031,-0.1777344,-0.2366412,-0.5419847,-0.1526718
0.1413574,1.004395,-0.05249023,3.618321,-0.4503817,0.2824428
0.1708984,1.023438,-0.0480957,2.633588,-0.7251908,1.160305
0.1430664,0.9775391,-0.1679688,-1.900763,-1.068702,0.6717557
0.1481934,0.9628906,-0.1730957,-0.8091603,-0.610687,0.2519084
0.1542969,0.9753418,-0.1628418,0.0610687,-0.5801527,0.2748091
0.1469727,0.9714355,-0.1674805,-0.07633588,-0.7938931,-0.02290076
0.1401367,0.9680176,-0.1962891,-0.8549618,-0.6259542,0.3206107
0.1411133,0.9731445,-0.1901855,-1.083969,-0.4351145,0.1908397
0.1413574,0.9702148,-0.1791992,-1.129771,-0.7251908,0.2519084
0.1418457,0.9729004,-0.1813965,-0.5496183,-0.6412213,0.1450382
0.1455078,0.9714355,-0.1740723,-0.1908397,-0.7251908,-0.08396947
0.1364746,0.972168,-0.1784668,-0.3969466,-0.5496183,0.4656488
0.1413574,0.9736328,-0.1813965,-0.8091603,-0.5725191,0.3969466
ax,ay,az,gx,gy,gz
0.1450195,0.9680176,-0.1740723,-0.9312977,-0.610687,0.3282443
0.1242676,0.8857422,-0.3481445,-5.244275,-1.656489,-0.09923664
0.1240234,1.000244,-0.1726074,0.2748091,-14.1374,-1.374046
0.6381836,0.9914551,-0.2211914,-5.78626,-120.3206,-16.43511
0.03076172,0.916748,-0.3098145,-22.61832,-223.1756,-18.27481
-0.02832031,1.016602,-0.3208008,-35.19847,-244.1374,-39.83969
-0.2736816,0.9602051,-0.09570313,-29.94657,-248.1832,4.412214
-0.2089844,0.925293,-0.255127,-41.9313,-243.145,28.51145
0.1901855,0.9562988,-0.1047363,-27.27481,-248.1832,37.29771
0.09228516,1.029541,-0.06152344,-25.07634,-248.1832,40.37405
0.2258301,0.888916,-0.3764648,-29.0458,-248.1832,19.41985
0.145752,1.018799,-0.2124023,-19.83206,-248.1832,15.52672
0.1052246,0.8977051,-0.3212891,-39.94656,-248.1832,7.10687
-0.1499023,1.009766,-0.3671875,-35.0229,14.18321,-64.35114
-1.42749,0.9162598,-0.0546875,6.694656,130.3588,98.00764
0.302002,0.9287109,0.1728516,-0.9236641,248.7634,70.61069
1.215332,0.8457031,-0.001953125,33.32061,208.374,-13.60305
0.184082,1.195801,0.1604004,54.10687,239.3359,-16.65649
-0.08959961,0.8728027,-0.7617188,17.28244,250.1298,-51.93893
0.1799316,0.9814453,-0.4182129,22.41985,229.4046,-35.14504
-0.08105469,0.9611816,-0.1367188,5.267176,250.1298,-24.51145
0.0925293,0.9606934,-0.1894531,19.96183,250.1298,-30.35878
0.04467773,1.109375,0.1816406,41.45802,220.2443,-9.931297
-0.03417969,0.9418945,-0.01293945,29.67939,208.7557,-1.091603
0.1474609,0.918457,-0.3425293,28.42748,138.0992,2.19084
0.2988281,0.996582,-0.4775391,10.78626,-23.79389,-5.541985
-0.04052734,0.9260254,-0.4470215,-11.35114,-45.0,-4.08397
-0.1047363,0.9462891,-0.4182129,-21.20611,2.030534,-5.038168
-0.06152344,1.039063,-0.0246582,-10.10687,-2.458015,31.08397
0.267334,0.9243164,-0.03320313,-14.83206,0.4885496,25.61832
0.2915039,0.9692383,0.01147461,3.916031,0.8625955,18.09924
0.3718262,1.013428,-0.05371094,10.91603,-1.78626,-3.030534
0.2248535,0.9406738,-0.2297363,9.068703,-0.08396947,-5.984733
0.2219238,0.9650879,-0.2897949,7.061069,-1.755725,-8.916031
0.1245117,0.9584961,-0.3017578,-1.725191,0.03053435,-7.671756
0.07568359,0.9716797,-0.239502,-8.236641,-0.04580153,-3.40458
0.05419922,0.9775391,-0.1501465,-7.290076,0.8625955,1.679389
0.1035156,0.9780273,-0.07739258,-2.541985,-0.6183206,3.862595
0.1384277,0.9790039,-0.1027832,2.114504,-1.29771,4.10687
0.1791992,0.9697266,-0.1652832,4.801527,-1.099237,2.114504
0.1889648,0.9631348,-0.2299805,2.923664,-0.8473283,-0.129771
0.1748047,0.9633789,-0.2543945,-0.9007633,-0.3358779,-1.10687
0.1484375,0.9707031,-0.2197266,-4.206107,-0.1908397,-1.167939
0.1315918,0.970459,-0.1650391,-4.61832,-0.09160305,-0.2824428
0.1291504,0.9780273,-0.1254883,-1.847328,-0.5267176,0.5648855
0.1340332,0.9692383,-0.1352539,1.007634,-0.6717557,0.9541985
0.1416016,0.9736328,-0.1630859,2.450382,-0.740458,1.145038
0.154541,0.9692383,-0.2050781,1.091603,-0.961832,0.610687
0.1564941,0.9638672,-0.2243652,-1.068702,-0.5267176,0.1450382
0.1513672,0.9716797,-0.2033691,-2.709924,-0.3129771,-0.351145
0.1462402,0.9716797,-0.1643066,-2.641221,-0.4274809,-0.4503817
0.1435547,0.9782715,-0.1474609,-1.061069,-0.4198473,0.09160305
0.1367188,0.9763184,-0.1640625,0.5648855,-0.6793893,0.3969466
0.1425781,0.9694824,-0.1916504,0.7251908,-0.8015267,0.8473283
0.1467285,0.9660645,-0.2041016,-0.8015267,-0.6030535,0.6183206
0.1589355,0.967041,-0.1975098,-1.748092,-0.4045802,0.2671756
0.1542969,0.9726563,-0.1689453,-1.755725,-0.3206107,-0.09923664
0.1499023,0.972168,-0.1574707,-0.7709923,-0.2748091,-0.2366412
0.142334,0.9729004,-0.1628418,-0.03053435,-0.5877862,0.04580153
0.1340332,0.9750977,-0.184082,0.08396947,-0.648855,0.3587786
0.1477051,0.9660645,-0.1860352,-0.4274809,-0.5267176,0.7557252
0.1516113,0.9729004,-0.192627,-1.305344,-0.5343512,0.5343512
0.1535645,0.9658203,-0.1762695,-1.526718,-0.3587786,0.2290076
0.1489258,0.96875,-0.1665039,-1.160305,-0.4503817,0.01526718
0.1459961,0.9736328,-0.1599121,-0.3587786,-0.5038168,-0.1374046
0.1508789,1.007813,-0.02734375,4.38168,0.3282443,-0.259542
0.1503906,0.9589844,-0.1643066,-0.5267176,0.0610687,0.2977099
0.1416016,0.9616699,-0.1989746,-1.122137,-0.2671756,0.03816794
0.1403809,0.9645996,-0.1894531,-1.328244,-0.4656488,0.08396947
0.1484375,0.9765625,-0.1860352,-1.305344,-0.6870229,0.4656488
0.1430664,0.972168,-0.1594238,-0.5267176,-0.389313,0.1145038
0.1547852,0.9714355,-0.1779785,-0.1221374,-0.8396947,0.09923664
0.142334,0.9731445,-0.1730957,-0.1603053,-0.5801527,0.2442748
0.1435547,0.9746094,-0.1850586,-0.8396947,-0.480916,0.4122138
0.1445313,0.9731445,-0.1867676,-1.061069,-0.5267176,0.3969466
0.1484375,0.9672852,-0.1809082,-0.8778625,-0.4580153,0.3206107
0.1462402,0.9799805,-0.1767578,-0.610687,-0.5343512,0.2290076
ax,ay,az,gx,gy,gz
0.1442871,0.9724121,-0.1772461,-0.2061069,-1.038168,0.08396947
0.1164551,0.9816895,-0.3139648,0.5496183,0.1984733,0.5496183
0.1386719,0.9628906,-0.2387695,-3.549618,-20.03053,-3.236641
0.5410156,0.949707,-0.1818848,-5.465649,-113.1985,-11.57252
0.2675781,0.9289551,-0.2209473,-21.80916,-237.9466,-20.91603
-0.1760254,0.9262695,-0.2966309,-35.9084,-213.1145,-22.84733
0.01171875,0.9360352,-0.1254883,-30.61069,-248.1832,4.167939
0.2053223,0.9680176,-0.2619629,-26.67939,-248.1832,40.98473
0.2692871,0.9077148,-0.4694824,-35.41221,-248.1832,5.763359
0.2143555,0.998291,-0.333252,-38.30534,-248.1832,4.709924
0.3271484,0.888916,-0.213623,-49.89313,-248.1832,-2.045802
-0.1098633,1.00708,0.02905273,-35.34351,-248.1832,0.06870229
0.2412109,0.7854004,-0.1074219,-57.61069,-248.1832,-7.541985
0.1738281,1.098145,-0.05273438,-24.87786,-248.1832,4.091603
-0.2233887,1.049561,0.04052734,-33.1145,-247.374,-3.328244
-0.4318848,1.105225,0.08007813,-17.07634,149.7863,46.48855
0.1928711,0.9729004,-0.1430664,29.32061,189.0229,85.08397
0.4611816,0.8615723,0.002685547,34.22901,183.0229,-2.580153
0.1740723,0.8840332,-0.02685547,28.59542,250.1298,13.85496
0.9182129,0.8774414,-0.2199707,49.16031,195.4046,-18.74046
0.1193848,1.001953,-0.1384277,35.35115,250.1298,-28.1145
0.4416504,0.8735352,-0.2487793,50.54198,250.1298,-36.87786
0.3566895,0.9985352,-0.1479492,47.8168,250.1298,-43.56488
0.1435547,0.8908691,-0.3896484,34.51908,250.1298,-52.41221
0.08496094,1.037354,-0.2365723,33.05344,250.1298,-33.69466
0.4960938,0.9140625,-0.2478027,9.603053,7.145038,-48.48092
-0.2558594,1.014404,-0.4343262,-18.89313,0.8091603,-79.15267
-0.7421875,1.03125,-0.1020508,-12.29771,-15.83206,16.51145
-0.1123047,0.9707031,-0.07910156,-20.0,-17.77863,28.25191
0.1086426,0.9677734,-0.002197266,-5.038168,-51.03817,29.75573
0.1875,1.001953,0.01879883,1.137405,-63.61069,27.90076
0.1608887,0.973877,-0.06005859,9.564885,-2.793893,19.10687
0.2426758,0.9558105,-0.206543,18.29008,-6.053435,41.16031
0.2749023,0.9260254,-0.3737793,2.824427,5.954198,23.61069
0.4638672,0.9311523,-0.3962402,-2.625954,-11.12977,-9.870229
0.1437988,0.9836426,-0.2470703,-12.25191,2.312977,-10.16794
0.1494141,0.9558105,-0.1567383,-11.89313,-0.8473283,-10.17557
0.06298828,0.9926758,-0.0390625,-5.48855,0.3969466,-6.015267
0.05566406,0.986084,-0.0456543,0.7480916,-0.6946565,-1.870229
0.04296875,0.9772949,-0.1022949,5.229008,-1.40458,2.916031
0.08081055,0.980957,-0.1845703,6.648855,-1.175573,5.274809
0.1374512,0.9602051,-0.2575684,2.51145,-0.9007633,5.167939
0.1806641,0.9628906,-0.2597656,-2.221374,-0.4732824,2.442748
0.1970215,0.9702148,-0.2121582,-5.61832,-0.2442748,-0.3740458
0.1813965,0.9768066,-0.1535645,-4.59542,-0.08396947,-2.29771
0.1425781,0.9790039,-0.1210938,-1.839695,-0.6030535,-2.389313
0.1176758,0.9758301,-0.1335449,0.9236641,-0.9541985,-0.9160305
0.105957,0.9763184,-0.1533203,2.206107,-0.8854962,0.832061
0.1113281,0.9714355,-0.1945801,1.496183,-0.9389313,1.778626
0.1403809,0.9731445,-0.2045898,-0.4656488,-0.6183206,1.641221
0.1677246,0.965332,-0.2097168,-2.038168,-0.6335878,0.3664122
0.1708984,0.96875,-0.1779785,-2.496183,-0.5267176,-0.740458
0.1496582,0.9770508,-0.1679688,-1.755725,-0.4885496,-1.122137
0.1269531,0.9709473,-0.1542969,-0.4274809,-0.3969466,-0.519084
0.1174316,0.9772949,-0.1672363,-0.01526718,-0.4732824,0.4732824
0.1181641,0.9716797,-0.1804199,0.09923664,-0.5725191,1.274809
0.1318359,0.9694824,-0.1882324,-0.4198473,-0.5343512,1.21374
0.1555176,0.9724121,-0.1955566,-0.9007633,-0.610687,0.2824428
0.1630859,0.9702148,-0.1806641,-1.335878,-0.5877862,-0.5038168
0.1418457,0.9782715,-0.1743164,-0.9007633,-0.5801527,-0.610687
0.128418,0.9780273,-0.1689453,-0.9541985,-0.5954198,0.09923664
0.1242676,0.9697266,-0.1760254,-0.5648855,-0.480916,0.7175572
0.1328125,0.9733887,-0.177002,-0.6946565,-0.6259542,0.961832
0.1462402,0.9873047,-0.1982422,1.725191,-1.335878,0.9083969
0.1623535,1.016357,-0.1374512,0.4045802,-0.05343511,1.10687
0.1555176,0.9804688,-0.1469727,-0.2442748,-0.5648855,-0.259542
0.1520996,0.9570313,-0.1687012,-1.015267,-0.9694656,-0.3816794
0.1357422,0.979248,-0.1765137,-0.6793893,-0.5954198,-0.1145038
0.135498,0.979248,-0.1716309,-0.2824428,-0.5114504,0.2061069
0.1337891,0.970459,-0.1750488,-0.6717557,-0.5419847,0.4351145
0.1411133,0.9716797,-0.1794434,-0.5648855,-0.3969466,0.4427481
0.1425781,0.9729004,-0.1728516,-0.5572519,-0.7709923,0.259542
0.1484375,0.9777832,-0.1791992,-1.068702,-0.5954198,0.1374046
0.1350098,0.9680176,-0.1853027,-0.9465649,-0.4885496,0.2137404
0.1347656,0.9787598,-0.1799316,-0.6183206,-0.5954198,0.2290076
ax,ay,az,gx,gy,gz
0.1311035,0.9777832,-0.1503906,-0.0610687,-2.0,0.5496183
0.1079102,1.000244,-0.1635742,0.4427481,-0.5801527,0.4503817
0.142334,0.9641113,-0.1442871,-1.557252,-0.389313,0.4656488
0.152832,0.9748535,-0.1943359,-0.7938931,-8.145039,-1.992366
0.7021484,0.9921875,-0.223877,-2.51145,-113.8092,-13.53435
0.376709,0.9533691,-0.2133789,-16.32825,-248.1832,-25.85496
-0.234375,0.9858398,-0.2592773,-30.9313,-194.8931,-49.96947
-0.1455078,0.9382324,-0.2331543,-20.92366,-248.1832,5.480916
-0.3068848,1.032715,-0.02563477,-33.96183,-232.9313,32.80153
0.1657715,0.8510742,-0.2329102,-29.41985,-248.1832,40.68702
0.4211426,0.8825684,-0.3781738,-31.41221,-248.1832,12.73282
0.02880859,0.9624023,-0.3710938,-20.98473,-248.1832,7.503817
0.2724609,0.8720703,-0.265625,-43.51908,-248.1832,0.3435115
-0.1774902,1.042969,-0.3132324,-26.58779,-109.5802,-7.160306
-0.5310059,1.003662,0.3977051,-1.59542,104.5802,74.64886
0.1088867,0.8088379,0.157959,1.931298,250.1298,67.57252
1.130615,1.036377,-0.3366699,23.92366,188.0076,-8.648855
0.3781738,1.21582,0.02050781,51.71756,219.9389,-17.10687
0.01635742,0.9616699,0.1220703,46.29008,250.1298,-20.0
0.6035156,0.8583984,-0.3381348,58.12977,206.0916,-38.03053
-0.06469727,0.9616699,-0.2700195,50.51145,250.1298,-30.48092
0.07397461,1.012695,-0.3479004,43.25954,250.1298,-33.77863
0.06054688,1.001465,-0.2675781,24.87786,250.1298,-28.08397
0.2563477,0.9228516,-0.3718262,7.687023,178.4809,-29.06107
-0.07324219,1.020264,-0.2028809,-0.2977099,144.6718,-7.793893
0.3569336,0.9584961,-0.1887207,-8.145039,12.42748,-18.69466
-0.1411133,1.01416,-0.1086426,-10.22901,-16.52672,-20.57252
-0.1728516,1.008789,-0.03955078,-3.603053,-37.08397,8.442748
-0.02832031,0.967041,-0.04418945,-1.022901,-67.34351,27.0916
-0.01855469,0.987793,-0.06616211,2.862595,12.42748,24.77863
0.1970215,0.9575195,-0.1604004,15.56489,-1.839695,44.14504
0.293457,0.9445801,-0.3232422,1.045802,14.67176,4.137404
0.4104004,0.9057617,-0.3742676,-0.2671756,-1.557252,-3.992366
0.2915039,0.9865723,-0.2414551,-3.671756,-0.9541985,-10.0687
0.1599121,0.9814453,-0.1520996,-10.71756,1.015267,-11.30534
0.08862305,0.9655762,-0.1088867,-5.412214,0.1374046,-7.938931
0.03417969,1.001465,-0.06811523,2.152672,-0.259542,-2.580153
0.03051758,0.9731445,-0.1330566,1.923664,-0.7938931,2.473282
0.07275391,0.9768066,-0.1679688,4.885496,-1.320611,5.206107
0.125,0.9729004,-0.2338867,2.984733,-1.076336,5.251908
0.1796875,0.9599609,-0.244873,-1.732824,-0.832061,2.969466
0.2043457,0.967041,-0.2199707,-3.053435,-0.3664122,0.1068702
0.1923828,0.9680176,-0.1696777,-1.954198,-0.2824428,-2.290076
0.1496582,0.9787598,-0.1340332,-2.427481,-0.1603053,-2.496183
0.1135254,0.982666,-0.1437988,0.1145038,-0.4580153,-1.045802
0.09912109,0.9760742,-0.1540527,1.007634,-0.6030535,0.8854962
0.1164551,0.9729004,-0.1750488,0.8015267,-0.9770992,2.022901
0.1479492,0.972168,-0.1982422,0.4198473,-0.778626,1.580153
0.1645508,0.965332,-0.1962891,-0.961832,-0.5877862,0.389313
0.1708984,0.9694824,-0.1918945,-1.801527,-0.4961832,-0.7022901
0.1425781,0.9790039,-0.1750488,-1.679389,-0.4580153,-1.114504
0.1193848,0.9736328,-0.1726074,-1.221374,-0.4045802,-0.2900764
0.1169434,0.9748535,-0.1674805,-0.2213741,-0.4503817,0.8625955
0.1291504,0.9702148,-0.177002,0.05343511,-0.5343512,1.183206
0.1386719,0.967041,-0.177002,-0.3206107,-0.7175572,0.9770992
0.1564941,0.973877,-0.1860352,-0.5725191,-0.5419847,0.1832061
0.152832,0.9675293,-0.1826172,-1.122137,-0.5114504,-0.4732824
0.1430664,0.9689941,-0.1738281,-1.312977,-0.3740458,-0.5496183
0.1298828,0.9816895,-0.1740723,-1.030534,-0.4503817,-0.07633588
0.1340332,0.9743652,-0.1704102,-0.8244275,-0.4732824,0.5114504
0.1274414,0.9697266,-0.1677246,-0.4732824,-0.5801527,0.9007633
0.1403809,0.9726563,-0.1750488,-0.351145,-0.610687,0.5725191
0.1467285,0.9748535,-0.182373,-0.778626,-0.4885496,0.2748091
0.1481934,0.9724121,-0.1782227,-0.8167939,-0.6717557,0.1221374
0.138916,0.9804688,-0.1777344,-1.167939,-0.6335878,-0.2977099
0.1340332,0.9765625,-0.1748047,-1.022901,-0.6335878,-0.1374046
0.1374512,0.998291,-0.1945801,2.007634,-1.175573,0.351145
0.1442871,0.9799805,-0.182373,-0.7022901,-0.7862596,0.1832061
0.1442871,0.9748535,-0.1801758,-1.145038,-0.5725191,0.1068702
0.1362305,0.9763184,-0.1643066,-0.8396947,-0.7938931,0.1221374
0.1298828,0.9748535,-0.1665039,-1.007634,-0.7633588,0.389313
0.1391602,0.9675293,-0.1821289,-0.6335878,-0.6412213,0.3206107
0.1396484,0.9736328,-0.1772461,-0.4274809,-0.610687,0.1374046
0.1403809,0.9760742,-0.1806641,-0.5114504,-0.6641222,0.1755725
0.1484375,0.9682617,-0.1831055,-1.19084,-0.4351145,0.07633588
0.1381836,0.9714355,-0.1809082,-0.740458,-0.5496183,0.2442748
0.1376953,0.9736328,-0.1789551,-0.8931297,-0.5267176,0.2824428
0.137207,0.9665527,-0.1669922,-0.8244275,-0.6259542,-0.08396947
ax,ay,az,gx,gy,gz
0.140625,0.9780273,-0.1721191,-0.5496183,-0.6183206,0.1832061
0.1208496,0.9267578,-0.1813965,-0.1221374,0.1450382,0.0
0.1601563,1.009277,-0.2233887,-3.389313,-14.16031,-2.083969
0.6481934,0.9868164,-0.2409668,-3.801527,-113.7939,-14.45038
0.3178711,0.9077148,-0.2832031,-22.20611,-248.1832,-24.25954
-0.2541504,1.034912,-0.2492676,-29.76336,-198.8626,-24.0229
-0.01367188,0.9787598,-0.2297363,-34.9542,-248.1832,-2.992366
-0.3579102,1.065918,0.1188965,-25.13741,-248.1832,59.26717
0.145752,0.8613281,-0.1369629,-38.90076,-248.1832,33.08397
0.2072754,0.9121094,-0.07983398,-15.27481,-248.1832,44.87023
0.01416016,1.015869,-0.262207,-33.61832,-248.1832,23.26718
0.4799805,0.9194336,-0.572998,-29.54198,-248.1832,6.70229
0.003173828,1.017334,-0.2814941,-27.48092,-244.9771,-2.671756
0.388916,0.8239746,-0.2260742,-50.38168,-248.1832,-2.541985
-0.1420898,1.10083,0.007568359,-45.22137,-174.855,-22.87023
0.2963867,0.8613281,-0.3007813,4.412214,213.4657,53.46565
0.4257813,1.002686,0.1704102,35.36641,199.7863,6.374046
0.6318359,1.016113,0.1804199,25.41985,202.6565,-5.610687
0.6328125,0.9150391,-0.121582,51.82443,229.0611,-25.38931
0.04760742,1.016357,0.2246094,73.45038,250.1298,-14.68702
0.6821289,0.7490234,-0.2504883,47.51145,235.8779,-44.07634
-0.03588867,0.8032227,-0.515625,46.10687,250.1298,-26.18321
0.4143066,0.9101563,-0.5690918,29.71756,178.8015,-53.14504
0.112793,1.044922,-0.546875,-1.633588,188.4504,-91.49619
-0.6574707,0.8356934,-0.1264648,7.122138,217.1069,16.01527
0.1982422,0.939209,-0.08813477,-2.129771,75.87023,41.41221
0.7529297,0.9992676,-0.01904297,-3.435115,-15.9542,-19.74809
-0.2001953,1.021484,-0.09008789,-6.648855,-7.48855,-32.24427
-0.3217773,0.973877,-0.07275391,2.259542,-29.28244,15.8626
0.008544922,0.9868164,-0.08764648,1.29771,-43.96183,25.0916
0.140625,0.963623,-0.175293,5.145038,-44.22901,22.47328
0.1745605,0.9863281,-0.2060547,7.717557,-16.62595,18.09924
0.1960449,0.9382324,-0.2893066,1.580153,1.351145,26.90076
0.2585449,0.925293,-0.2973633,-4.167939,4.503817,27.53435
0.6616211,0.9755859,-0.166748,-5.183206,-12.62595,-11.54198
0.07275391,0.9616699,-0.1574707,-10.06107,3.732824,-9.259542
0.1179199,0.9729004,-0.1120605,-1.89313,-2.10687,-8.160305
0.03515625,1.006104,-0.06982422,0.2748091,-0.480916,-2.19084
0.03857422,0.963623,-0.144043,1.267176,-0.6564885,2.496183
0.07617188,0.9746094,-0.1882324,4.648855,-1.740458,5.236641
0.1435547,0.980957,-0.2111816,0.8931297,-1.206107,4.763359
0.1896973,0.963623,-0.2241211,-2.381679,-0.7251908,2.022901
0.2041016,0.9658203,-0.1960449,-2.351145,-0.4045802,-1.21374
0.1760254,0.9719238,-0.1689453,-2.419847,-0.3587786,-2.900763
0.1308594,0.9770508,-0.1491699,-1.732824,-0.5267176,-2.229008
0.1005859,0.9729004,-0.1520996,-0.06870229,-0.6793893,-0.3969466
0.0925293,0.9729004,-0.1516113,0.4122138,-0.6793893,1.290076
0.1196289,0.9724121,-0.1784668,0.4503817,-0.740458,2.053435
0.1459961,0.9741211,-0.1965332,-0.01526718,-1.007634,1.419847
0.1748047,0.9711914,-0.1867676,-0.8396947,-0.8473283,0.08396947
0.1577148,0.9714355,-0.1901855,-1.480916,-0.4274809,-1.038168
0.1425781,0.9765625,-0.1689453,-1.48855,-0.480916,-0.9465649
0.1213379,0.9743652,-0.1748047,-1.412214,-0.4503817,-0.09923664
0.1159668,0.9758301,-0.1721191,-0.6870229,-0.5725191,0.9389313
0.1230469,0.9804688,-0.1647949,-0.2824428,-0.6946565,1.183206
0.1408691,0.9765625,-0.1779785,-0.2213741,-0.7099237,0.9083969
0.1298828,0.9675293,-0.1611328,-0.9694656,-0.3664122,0.1832061
0.1320801,0.9746094,-0.1640625,-0.5801527,-0.6870229,0.6030535
0.1335449,0.9731445,-0.1813965,-0.1908397,-0.6564885,0.7938931
0.1425781,0.972168,-0.1704102,-0.4045802,-0.610687,0.3664122
0.1462402,0.9760742,-0.1782227,-0.5267176,-0.648855,-0.007633588
0.1394043,0.9707031,-0.1767578,-0.9236641,-0.6412213,-0.03816794
0.1320801,0.9726563,-0.1616211,-1.236641,-0.6564885,0.05343511
0.1313477,0.9802246,-0.1762695,-1.022901,-0.6259542,0.04580153
0.1323242,0.9726563,-0.157959,-0.610687,-0.6030535,0.3053435
0.1408691,0.982666,-0.1865234,-1.442748,-1.389313,0.7175572
0.09570313,1.001709,-0.2727051,-3.671756,-0.3053435,0.3282443
0.1418457,0.9672852,-0.1945801,-0.5725191,-0.9541985,-0.02290076
0.1503906,0.9858398,-0.1801758,-1.21374,-0.6946565,0.1755725
0.1359863,0.9794922,-0.171875,-1.099237,-0.3816794,0.07633588
0.1269531,0.9750977,-0.1772461,-1.030534,-0.2442748,0.3282443
0.1379395,0.96875,-0.1608887,-0.2900764,-0.3816794,0.1984733
0.135498,0.9699707,-0.1687012,-0.389313,-0.6564885,0.351145
0.1374512,0.9716797,-0.1872559,-0.5038168,-0.5267176,0.1832061
0.1342773,0.9714355,-0.1740723,-0.7480916,-0.3587786,0.1450382
0.1330566,0.9743652,-0.1784668,-0.9770992,-0.6259542,0.1984733
0.1342773,0.9755859,-0.1777344,-0.8244275,-0.610687,0.129771
0.1350098,0.9733887,-0.173584,-0.5877862,-0.6183206,0.3053435
0.1411133,0.96875,-0.1877441,-0.6564885,-0.740458,0.0610687
ax,ay,az,gx,gy,gz
0.1391602,0.9663086,-0.1538086,1.793893,-0.259542,-0.03053435
0.1577148,1.020752,-0.02709961,6.137404,-0.6564885,1.122137
0.1225586,0.9848633,-0.09765625,1.374046,-1.152672,0.2824428
0.1166992,0.9626465,-0.1730957,-0.8396947,-5.534351,-0.8091603
0.690918,0.9931641,-0.1606445,0.2519084,-126.3893,-17.38168
0.03295898,0.9355469,-0.2080078,-21.35114,-215.0534,-15.55725
-0.09619141,0.998291,-0.2565918,-28.37405,-213.458,-35.21374
-0.1159668,0.9692383,-0.1816406,-22.12214,-248.1832,13.26718
-0.2246094,1.045654,-0.005859375,-37.09924,-248.1832,32.8168
0.1845703,0.888916,-0.1420898,-34.27481,-248.1832,31.83969
0.1206055,0.9255371,-0.2585449,-16.84733,-248.1832,50.65649
1.060059,1.016113,-0.2165527,-26.60305,-248.1832,11.07634
0.7424316,0.8999023,-0.3076172,-29.9771,-248.1832,7.625954
-0.130127,1.084229,-0.2675781,-35.00763,-216.8626,4.221374
-0.5456543,1.075195,0.09619141,-27.25954,182.4046,64.8855
0.3181152,0.8103027,-0.3144531,1.206107,211.2901,66.67175
0.7375488,1.170166,0.09570313,25.54198,193.7023,5.91603
0.1826172,0.8054199,0.1955566,22.01527,234.5496,-6.099236
0.6520996,0.9584961,-0.078125,55.66412,185.0305,-20.9084
0.3271484,0.9375,-0.401123,68.56489,227.3359,-21.70992
0.1142578,1.112793,-0.2431641,60.50382,250.1298,-38.58779
0.4348145,0.9641113,-0.526123,42.58015,204.0305,-47.01527
0.3173828,0.9594727,-0.5776367,18.8855,157.2672,-48.35878
-0.2998047,1.025146,-0.4436035,1.160305,250.1298,-58.15267
-0.1962891,0.9382324,-0.07373047,2.885496,189.3359,12.23664
0.310791,0.9260254,-0.1699219,-7.900764,37.60305,2.022901
-0.01000977,1.111816,0.04907227,-5.503817,-19.56489,-25.32825
-0.1923828,0.9482422,-0.03466797,-6.038168,-16.92366,-9.587787
-0.08422852,0.9321289,-0.1040039,1.312977,-40.37405,24.19847
0.1464844,1.000244,-0.1025391,5.839694,-47.1832,19.68702
0.1103516,0.9750977,-0.2099609,7.854962,-8.198473,17.79389
0.1955566,0.9440918,-0.2885742,6.450382,-0.08396947,32.86259
0.2666016,0.9335938,-0.3381348,-6.549618,12.8626,-4.656488
0.5041504,0.9643555,-0.2651367,-4.801527,-4.793893,-10.21374
0.1835938,0.9973145,-0.1235352,-7.419847,1.885496,-10.32824
0.1286621,0.9418945,-0.1411133,-6.961832,0.06870229,-9.503817
0.04394531,1.00293,-0.07885742,0.6030535,-1.450382,-4.427481
0.02075195,0.9912109,-0.09179688,2.030534,-0.480916,1.389313
0.04614258,0.9716797,-0.1796875,3.78626,-1.748092,5.244275
0.1225586,0.9765625,-0.201416,2.572519,-1.557252,5.679389
0.1716309,0.9606934,-0.2270508,-0.2061069,-1.015267,3.954198
0.2053223,0.965332,-0.2160645,-2.251908,-0.5648855,0.778626
0.1975098,0.9741211,-0.1887207,-3.114504,-0.2290076,-2.122137
0.1623535,0.9753418,-0.154541,-2.839695,-0.08396947,-2.89313
0.1159668,0.9743652,-0.140625,-1.305344,-0.3740458,-1.755725
0.1572266,0.970459,-0.1931152,-0.740458,-0.7328244,0.3587786
0.1628418,0.9714355,-0.185791,-1.641221,-0.6793893,-0.6641222
0.1479492,0.9709473,-0.1804199,-1.580153,-0.4045802,-1.175573
0.1218262,0.9733887,-0.175293,-1.305344,-0.3129771,-0.5038168
0.1157227,0.9787598,-0.1606445,-0.7709923,-0.5267176,0.389313
0.1228027,0.9753418,-0.1574707,-0.1679389,-0.6183206,1.244275
0.1325684,0.9719238,-0.1745605,-0.1984733,-0.8091603,1.053435
0.1513672,0.96875,-0.1870117,-0.2824428,-0.7328244,0.4503817
0.1523438,0.9675293,-0.1796875,-0.7022901,-0.519084,-0.2290076
0.1455078,0.9672852,-0.1831055,-1.236641,-0.4580153,-0.5725191
0.1342773,0.9697266,-0.1748047,-1.160305,-0.5572519,-0.1984733
0.1257324,0.9702148,-0.1621094,-1.21374,-0.4580153,-0.03816794
0.1257324,0.972168,-0.171875,-0.4503817,-0.5648855,0.8244275
0.1340332,0.9736328,-0.1782227,-0.3053435,-0.5343512,0.7480916
0.144043,0.9677734,-0.1743164,-0.4580153,-0.6335878,0.4503817
0.1455078,0.972168,-0.1740723,-0.7022901,-0.3816794,-0.04580153
0.1411133,0.9536133,-0.2145996,0.648855,0.519084,-1.099237
0.152832,0.9794922,-0.2119141,-0.07633588,-2.137405,-0.4351145
0.1315918,1.0,-0.2214355,-1.557252,-1.114504,1.244275
0.1313477,0.9865723,-0.1660156,-0.3969466,-1.343511,0.4045802
0.1401367,0.963623,-0.1779785,-0.7938931,-0.8167939,0.4961832
0.1420898,0.9658203,-0.1821289,-0.6717557,-0.6717557,0.007633588
0.1291504,0.9729004,-0.1816406,-0.9389313,-0.3969466,0.1755725
0.1342773,0.9731445,-0.1750488,-1.076336,-0.3129771,0.2213741
0.1330566,0.9709473,-0.1730957,-1.099237,-0.5419847,0.2671756
0.135498,0.9714355,-0.1674805,-0.7633588,-0.5038168,0.3129771
0.1311035,0.9731445,-0.1723633,-0.6717557,-0.7633588,0.259542
0.1337891,0.9750977,-0.1750488,-0.3969466,-0.5877862,0.2442748
0.1418457,0.9719238,-0.1835938,-0.5114504,-0.5801527,0.2137404
0.1362305,0.9741211,-0.1750488,-0.7709923,-0.7328244,0.1908397
0.1325684,0.9755859,-0.1767578,-0.6870229,-0.7709923,0.1755725
0.1364746,0.9733887,-0.1733398,-1.053435,-0.5648855,0.2977099
ax,ay,az,gx,gy,gz
0.1320801,0.9287109,-0.2553711,-5.038168,-0.4656488,0.8473283
0.1081543,0.9230957,-0.2668457,-3.061069,1.679389,-0.5572519
0.1574707,0.9384766,-0.166748,0.8396947,0.3587786,-0.519084
0.1831055,0.9697266,-0.1789551,-0.4351145,-9.992367,0.2290076
0.4213867,0.9543457,-0.3139648,-10.61069,-118.1603,-15.07634
0.8996582,1.012939,-0.3032227,-19.75573,-248.1832,-39.59542
-0.2983398,1.078613,-0.140625,-28.13741,-188.8244,-22.07634
0.02246094,0.8532715,-0.3603516,-37.61069,-248.1832,-0.3740458
-0.4594727,1.086914,0.0300293,-24.0,-248.1832,50.91603
0.0871582,0.9545898,-0.1079102,-39.69466,-248.1832,27.06107
0.1096191,0.8845215,-0.2851563,-12.94656,-248.1832,66.56489
0.9768066,1.063965,-0.08520508,-34.74809,-248.1832,15.8626
0.3447266,0.848877,-0.2119141,-30.10687,-248.1832,8.450381
-0.1125488,0.9885254,-0.222168,-36.77863,-208.5954,-10.54962
-0.4230957,1.053711,-0.04541016,-22.25191,146.771,63.42748
0.2641602,0.7653809,-0.4416504,-15.28244,219.0076,51.36641
0.4516602,1.093994,0.02368164,30.32061,197.0992,-2.770992
0.06811523,1.10498,0.4221191,33.51145,250.1298,-9.282443
0.6335449,0.6523438,-0.2763672,34.10687,218.0458,-25.76336
0.3015137,1.208252,0.1103516,68.50381,250.1298,-25.21374
0.08422852,0.8928223,-0.2197266,50.42748,250.1298,-31.28244
0.467041,0.8867188,-0.5368652,54.24427,220.229,-43.44275
0.2514648,0.8925781,-0.5664063,26.58779,179.7481,-47.75573
-0.1193848,1.053467,-0.5175781,12.69466,244.4275,-65.13741
-0.1882324,0.9020996,-0.2580566,2.832061,192.6794,4.725191
0.1694336,1.098389,-0.1635742,-8.236641,7.641222,-23.67175
-0.1787109,1.01416,0.0,-7.564886,-11.60305,-20.40458
-0.1748047,0.9958496,0.01147461,-2.992366,-28.24427,10.59542
0.01782227,0.9599609,-0.06591797,0.3740458,-52.03817,23.80153
0.1567383,0.9873047,-0.1191406,4.022901,-47.39695,15.38168
0.01098633,0.9599609,-0.1989746,10.31298,6.465649,27.64122
0.239502,0.9431152,-0.2797852,8.053435,-1.282443,38.42748
0.9338379,1.008057,-0.2666016,-2.244275,-7.48855,-4.564886
0.2365723,0.9172363,-0.2988281,-9.21374,4.312977,-8.503817
0.2219238,0.9997559,-0.1459961,-5.480916,-2.206107,-11.38931
0.1037598,0.9790039,-0.1936035,3.053435,-1.061069,5.908397
0.1672363,0.9626465,-0.223877,1.152672,-1.328244,4.251908
0.2099609,0.9675293,-0.2365723,-1.557252,-0.6183206,0.7709923
0.1992188,0.9643555,-0.2060547,-3.099237,-0.3435115,-2.198473
0.1594238,0.9714355,-0.1660156,-3.29771,-0.1526718,-3.221374
0.114502,0.9748535,-0.1369629,-2.137405,-0.3129771,-1.969466
0.08813477,0.9836426,-0.142334,-0.3358779,-0.5267176,0.2213741
0.09765625,0.9765625,-0.1574707,0.8931297,-0.8931297,2.007634
0.1262207,0.9726563,-0.1804199,1.030534,-0.9847328,2.21374
0.1589355,0.9665527,-0.2028809,0.4885496,-0.9389313,0.9770992
0.1621094,0.9682617,-0.1999512,-0.7938931,-0.6717557,-0.5343512
0.1550293,0.9694824,-0.1865234,-1.916031,-0.2671756,-1.129771
0.1350098,0.9750977,-0.171875,-2.083969,-0.2290076,-1.045802
0.123291,0.9841309,-0.1577148,-1.557252,-0.5343512,-0.1221374
0.1105957,0.9750977,-0.1647949,-0.6641222,-0.4274809,0.8473283
0.1298828,0.9741211,-0.1726074,0.08396947,-0.8167939,1.145038
0.145752,0.9758301,-0.182373,0.1450382,-0.8167939,0.6946565
0.1474609,0.9694824,-0.1872559,-0.4656488,-0.5725191,-0.06870229
0.1411133,0.9663086,-0.1806641,-1.083969,-0.6335878,-0.480916
0.1313477,0.9707031,-0.175293,-1.549618,-0.5572519,-0.2824428
0.1245117,0.9736328,-0.161377,-1.442748,-0.5801527,0.1679389
0.128418,0.9780273,-0.1665039,-0.6564885,-0.4427481,0.648855
0.1291504,0.9724121,-0.168457,-0.2824428,-0.5648855,0.6335878
0.1433105,0.967041,-0.1745605,-0.351145,-0.5114504,0.3587786
0.1420898,0.9733887,-0.1845703,-0.6870229,-0.5877862,0.1221374
0.144043,0.9736328,-0.1833496,-1.015267,-0.4885496,0.01526718
0.1340332,0.9746094,-0.1801758,-1.145038,-0.4732824,-0.007633588
0.1345215,0.9729004,-0.1665039,-1.267176,-0.4122138,0.1526718
0.1359863,0.9697266,-0.1669922,-0.5038168,-0.5801527,0.1908397
0.1369629,0.9733887,-0.1638184,-0.2290076,-0.6564885,0.5038168
0.1342773,0.9731445,-0.1838379,-0.351145,-0.4274809,0.389313
0.1865234,0.9975586,-0.1157227,2.381679,0.01526718,-0.610687
0.1672363,0.9960938,-0.1630859,-2.381679,-1.793893,0.7328244
0.1606445,0.9807129,-0.1535645,-1.274809,-1.068702,0.3435115
0.111084,0.9689941,-0.1638184,-1.10687,-0.2366412,0.02290076
0.1337891,0.9699707,-0.1621094,-0.648855,-0.1908397,0.2977099
0.1315918,0.9711914,-0.1645508,0.0610687,-0.3435115,0.4122138
0.1379395,0.9772949,-0.1796875,-0.4503817,-0.5954198,0.1755725
0.1369629,0.9750977,-0.1730957,-0.3740458,-0.5343512,0.3358779
0.1384277,0.9758301,-0.1762695,-0.8778625,-0.6641222,0.4885496
0.1306152,0.972168,-0.1733398,-1.007634,-0.480916,0.129771
0.1350098,0.9743652,-0.1809082,-0.8396947,-0.480916,0.1221374
0.1328125,0.9714355,-0.1687012,-0.4274809,-0.5038168,-0.1068702
0.1320801,0.970459,-0.1655273,-0.4503817,-0.4885496,0.1603053
ax,ay,az,gx,gy,gz
0.1357422,0.9714355,-0.1796875,-0.648855,-0.5038168,0.2671756
0.137207,1.025391,-0.2202148,-2.160305,-1.0,0.7557252
0.1125488,0.9645996,-0.2062988,-4.076336,-7.0,-0.5343512
0.2424316,0.8964844,-0.2141113,-2.534351,-80.0229,-16.72519
0.3022461,0.9016113,-0.3666992,-21.0,-248.1832,-27.89313
-0.3232422,1.048828,-0.2109375,-31.86259,-187.9389,-48.9542
0.04980469,0.9714355,-0.2893066,-28.20611,-248.1832,9.259542
-0.4494629,1.0896,0.04443359,-30.9084,-248.1832,40.54198
0.1550293,0.8864746,-0.2258301,-38.0916,-248.1832,33.96947
0.2539063,1.002686,-0.3823242,-9.442748,-248.1832,64.63359
0.07055664,1.095459,-0.1230469,-30.53435,-248.1832,17.44275
0.6628418,0.8493652,-0.3200684,-32.64885,-248.1832,6.122138
0.1362305,1.057373,-0.3459473,-38.38931,-248.1832,1.900763
0.487793,0.9865723,-0.267334,-36.30534,-248.1832,-8.770992
-0.1306152,1.011475,-0.09326172,-54.56488,-215.542,-5.687023
-1.007568,1.119629,0.3120117,0.7099237,202.2366,75.96183
0.2463379,0.7788086,-0.0324707,-3.709924,199.626,83.35114
0.8693848,1.004395,0.1711426,40.83969,171.3969,10.58779
0.01416016,0.8837891,0.282959,29.38931,250.1298,0.9923664
0.8222656,0.8400879,-0.3359375,59.9542,190.2824,-16.22901
0.05273438,1.177002,0.2573242,60.66412,250.1298,-23.41221
0.5229492,0.795166,-0.2663574,53.80153,195.6565,-38.74809
0.3601074,0.8989258,-0.4729004,52.8855,139.7328,-57.9313
0.1445313,0.9890137,-0.07250977,6.21374,169.9847,-10.63359
0.05786133,0.9650879,-0.0234375,11.0229,89.0458,3.603053
0.6115723,1.013428,-0.1574707,2.29771,-23.86259,-16.74046
-0.1716309,1.007813,-0.177002,4.183206,-17.92366,-2.740458
-0.1166992,0.9484863,-0.2028809,2.694656,-29.9771,22.98473
0.1081543,0.9484863,-0.2629395,-0.648855,-32.70992,22.46565
0.1357422,0.9838867,-0.2072754,-1.160305,-2.19084,30.93893
0.467041,1.012207,-0.2197266,-5.70229,0.4961832,5.305344
0.2988281,0.9230957,-0.1818848,-4.312977,-1.427481,-8.526717
0.2216797,0.996582,-0.107666,1.908397,-0.4885496,-11.98473
0.1123047,0.9689941,-0.1628418,-0.9389313,-0.259542,-10.81679
0.03637695,0.9770508,-0.1862793,1.10687,-0.5496183,-6.29771
0.003173828,0.9909668,-0.1760254,0.8854962,-0.8091603,1.068702
0.01806641,0.9741211,-0.197998,-2.145038,-0.9389313,6.40458
0.1032715,0.9741211,-0.1831055,-1.709924,-1.198473,7.320611
0.1860352,0.9755859,-0.1625977,-1.641221,-1.251908,4.099236
0.2253418,0.9643555,-0.1699219,-0.9770992,-0.8396947,0.2366412
0.1967773,0.9729004,-0.1708984,0.2900764,-0.5954198,-3.51145
0.1357422,0.9797363,-0.1835938,-0.007633588,-0.1221374,-3.572519
0.09838867,0.9709473,-0.1855469,-0.7022901,-0.3435115,-1.572519
0.08422852,0.9772949,-0.1862793,-1.435114,-0.4732824,0.8931297
0.09790039,0.9707031,-0.1650391,-1.671756,-0.6564885,2.587786
0.1362305,0.9763184,-0.1655273,-0.870229,-0.6641222,2.251908
0.1618652,0.9743652,-0.1611328,-0.09160305,-0.9083969,0.8015267
0.1616211,0.9685059,-0.1672363,0.08396947,-0.7557252,-0.7862596
0.1520996,0.9724121,-0.1845703,-0.2137404,-0.4427481,-1.274809
0.1279297,0.9736328,-0.1936035,-0.9923664,-0.259542,-0.6259542
0.1091309,0.9733887,-0.1811523,-1.648855,-0.3435115,0.2671756
0.1154785,0.9804688,-0.1552734,-1.671756,-0.5496183,0.832061
0.1335449,0.9770508,-0.1535645,-0.8473283,-0.5114504,0.9541985
0.1391602,0.9724121,-0.1665039,0.03816794,-0.7480916,0.519084
0.1430664,0.9741211,-0.1767578,0.3282443,-0.7328244,-0.04580153
0.1362305,0.9743652,-0.1945801,-0.2061069,-0.6259542,-0.1603053
0.1237793,0.9724121,-0.1860352,-1.167939,-0.4351145,0.129771
0.1313477,0.9772949,-0.1831055,-1.648855,-0.5114504,0.3129771
0.1320801,0.9741211,-0.1552734,-1.198473,-0.6870229,0.4198473
0.138916,0.9731445,-0.1726074,-0.7175572,-0.5496183,0.3282443
0.1430664,0.9760742,-0.1682129,-0.259542,-0.9236641,0.03816794
0.1350098,0.9660645,-0.1767578,-0.06870229,-0.648855,0.1221374
0.1318359,0.9746094,-0.185791,-0.6564885,-0.4045802,0.2900764
0.1428223,1.019043,-0.03491211,2.587786,-1.305344,0.5648855
0.1303711,0.9692383,-0.107666,-1.435114,0.4351145,0.7251908
0.1408691,0.9355469,-0.1499023,-0.832061,-0.03053435,-0.1603053
0.1271973,0.9707031,-0.1665039,-0.4885496,-0.2900764,0.1450382
0.1293945,0.9814453,-0.1530762,0.4122138,-0.6183206,0.3358779
0.1416016,0.9824219,-0.177002,-0.4580153,-0.6030535,0.4045802
0.1379395,0.9775391,-0.1745605,-0.6793893,-0.5725191,0.389313
0.1323242,0.9682617,-0.177002,-0.9083969,-0.4885496,0.5954198
0.1396484,0.970459,-0.175293,-0.9847328,-0.3740458,0.1603053
0.1352539,0.9731445,-0.1721191,-1.015267,-0.6335878,0.1679389
0.1333008,0.9731445,-0.1616211,-0.6717557,-0.6259542,0.2137404
0.1286621,0.9736328,-0.1662598,-0.519084,-0.5801527,0.1832061
ax,ay,az,gx,gy,gz
0.1247559,1.088379,-0.1433105,-4.267176,-2.038168,2.045802
0.07836914,0.894043,-0.1665039,-7.152672,2.580153,0.6030535
0.1855469,0.887207,-0.1462402,-0.0610687,-2.374046,-2.374046
0.5141602,0.9018555,-0.2092285,-2.40458,-135.1069,-15.34351
0.347168,0.9238281,-0.2810059,-19.98473,-248.1832,-26.71756
-0.3127441,1.027832,-0.2094727,-29.62595,-172.6794,-37.33588
-0.1220703,0.8410645,-0.4208984,-22.99237,-248.1832,6.19084
-0.2937012,1.037109,-0.08154297,-31.93893,-240.7481,38.40458
0.1655273,0.9035645,-0.06469727,-44.96183,-248.1832,48.27481
0.279541,0.8735352,-0.3662109,-18.78626,-248.1832,11.55725
0.2644043,1.095215,0.1416016,-33.21374,-248.1832,23.24427
0.7954102,0.9455566,-0.1555176,-24.44275,-248.1832,18.22137
0.1137695,1.029053,0.005859375,-28.9084,-248.1832,7.534351
0.5493164,0.796875,-0.1057129,-36.23664,-248.1832,-33.77863
0.6437988,0.7739258,-0.07885742,25.17557,199.916,-3.931298
0.5358887,1.068848,0.168457,54.15267,201.229,-11.68702
-0.04711914,0.8461914,0.01171875,40.25191,250.1298,-15.0687
1.151611,0.9863281,-0.2199707,69.19847,236.8855,-26.34351
0.4865723,0.815918,-0.2487793,47.0687,166.6488,-52.67176
0.2844238,0.8620605,-0.7207031,27.82443,170.7405,-80.06107
-0.2087402,1.092041,-0.3532715,9.900764,229.7252,-16.83206
0.04125977,1.023682,-0.3671875,7.984733,233.1374,-26.12977
-0.1733398,0.9848633,-0.1008301,2.160305,249.771,2.061069
0.1472168,0.9846191,-0.1005859,6.061069,162.4962,1.740458
0.06616211,0.9846191,-0.02197266,4.969466,100.3969,-3.725191
0.1384277,0.9597168,-0.1774902,5.526718,-13.72519,-12.56489
-0.1584473,1.00708,-0.1767578,0.2442748,-9.549619,-0.07633588
-0.1132813,0.9729004,-0.1923828,1.793893,-23.72519,24.94657
0.1245117,0.9782715,-0.2053223,-1.320611,-39.93893,28.27481
0.1572266,0.994873,-0.203125,-0.2900764,-2.29771,17.9084
0.236084,0.9626465,-0.1953125,-1.824428,2.083969,9.091603
0.4179688,0.9431152,-0.2050781,-2.381679,-2.717557,-3.221374
0.2907715,0.9868164,-0.1335449,-1.78626,-1.89313,-12.01527
0.1630859,0.9682617,-0.1542969,-1.763359,-0.2748091,-12.98473
0.06933594,0.979248,-0.1655273,0.3740458,-1.40458,-9.206107
-0.004882813,0.9873047,-0.154541,0.3435115,-0.9160305,-2.526718
-0.02490234,0.9772949,-0.1831055,-0.5572519,-0.3053435,5.122138
0.05493164,0.9787598,-0.1728516,-0.6030535,-1.312977,6.732824
0.1894531,0.9641113,-0.1743164,-0.4427481,-1.145038,3.671756
0.2189941,0.9736328,-0.1623535,-0.03053435,-0.9236641,-1.0
0.1833496,0.9680176,-0.189209,-0.2442748,-0.740458,-3.641221
0.1342773,0.9780273,-0.171875,-0.7175572,-0.3129771,-3.770992
0.08935547,0.9772949,-0.1738281,-0.9923664,-0.4732824,-2.129771
0.07788086,0.9802246,-0.168457,-1.145038,-0.3358779,0.9770992
0.08959961,0.9755859,-0.1633301,-1.145038,-0.7480916,2.648855
0.1213379,0.9733887,-0.1677246,-0.5725191,-0.7557252,2.40458
0.1530762,0.9726563,-0.161377,-0.0610687,-0.8167939,1.076336
0.1618652,0.9760742,-0.1806641,-0.1068702,-0.9007633,-0.8015267
0.1411133,0.9733887,-0.182373,-0.8625955,-0.4122138,-1.206107
0.1120605,0.9729004,-0.1713867,-1.29771,-0.3358779,-0.7022901
0.107666,0.9716797,-0.1662598,-1.732824,-0.3587786,0.4122138
0.1091309,0.9748535,-0.1643066,-1.198473,-0.7328244,0.9694656
0.1318359,0.9765625,-0.1630859,-0.5343512,-0.4885496,0.7557252
0.1367188,0.9765625,-0.1706543,0.03053435,-0.7938931,0.3282443
0.1376953,0.972168,-0.1713867,0.03053435,-0.7633588,-0.1755725
0.1330566,0.9724121,-0.1848145,-0.5343512,-0.480916,-0.2671756
0.1186523,0.9675293,-0.1938477,-1.29771,-0.4961832,0.1068702
0.1196289,0.9794922,-0.1740723,-1.549618,-0.2671756,0.3358779
0.1298828,0.9724121,-0.1652832,-1.145038,-0.4961832,0.4122138
0.125,0.9794922,-0.1574707,-0.5954198,-0.7022901,0.3587786
0.1333008,0.9772949,-0.1650391,-0.3358779,-0.519084,0.07633588
0.1315918,0.9719238,-0.1796875,0.007633588,-0.519084,0.08396947
0.128418,0.9763184,-0.1782227,-0.5038168,-0.5343512,0.1145038
0.1313477,0.9714355,-0.1801758,-1.114504,-0.5725191,0.3358779
0.1279297,0.980957,-0.1767578,-1.236641,-0.4503817,0.2519084
0.1259766,0.9748535,-0.177002,-1.045802,-0.4198473,0.1755725
0.1323242,1.02124,-0.06079102,3.358779,-0.1755725,-0.6946565
0.1660156,1.011963,-0.03369141,3.427481,-1.450382,0.8091603
0.1088867,0.9875488,-0.1855469,-0.870229,-1.061069,0.9083969
0.1201172,0.9707031,-0.182373,-0.7251908,-1.10687,0.2748091
0.1430664,0.9777832,-0.1699219,-1.099237,-0.8244275,-0.05343511
0.1264648,0.9816895,-0.1665039,-0.8396947,-0.778626,0.03053435
0.1230469,0.9694824,-0.1733398,-1.19084,-0.4656488,0.2290076
0.1254883,0.9731445,-0.1694336,-0.6030535,-0.6412213,0.3282443
0.1240234,0.9765625,-0.1728516,-0.3358779,-0.610687,0.2137404
0.1218262,0.9714355,-0.1640625,-0.5267176,-0.4503817,0.2824428
0.1264648,0.9716797,-0.1760254,-0.7328244,-0.5648855,0.3053435
0.1276855,0.9758301,-0.1796875,-0.9236641,-0.6335878,0.09160305
0.1281738,0.9772949,-0.1655273,-1.0,-0.4732824,0.2824428
0.128418,0.9714355,-0.1726074,-0.832061,-0.5343512,0.1755725
0.1184082,0.9758301,-0.1677246,-0.8091603,-0.5038168,0.03816794
ax,ay,az,gx,gy,gz
0.1477051,0.9975586,-0.199707,-0.8625955,-1.267176,0.4732824
0.1103516,0.9916992,-0.177002,-0.6870229,-0.8473283,-0.09160305
0.1088867,0.9814453,-0.1635742,-0.06870229,-0.4580153,0.3206107
0.1594238,0.9770508,-0.1699219,-0.2977099,-4.343512,-0.1068702
0.6677246,0.9384766,-0.3544922,-4.236641,-160.9847,-16.79389
0.1462402,0.979248,-0.260498,-21.29771,-248.1832,-20.61832
-0.3222656,0.9831543,-0.2290039,-31.72519,-159.0534,-26.71756
0.1496582,0.8444824,-0.2802734,-35.38168,-248.1832,18.0229
-0.1691895,0.9890137,-0.1755371,-25.86259,-248.1832,42.15267
0.09838867,0.9394531,0.09179688,-39.86259,-248.1832,33.96183
0.2285156,0.7319336,-0.5087891,-16.14504,-248.1832,18.94657
-0.07275391,1.127441,-0.09619141,-32.30534,-248.1832,24.80916
0.9282227,0.8693848,-0.3505859,-23.93893,-248.1832,0.4732824
-0.1235352,1.227295,-0.1044922,-47.12977,-248.1832,9.473283
-0.7546387,1.144287,0.230957,-23.70229,143.1221,72.06107
0.2614746,0.7119141,-0.2282715,-2.312977,172.9008,75.47328
0.6403809,1.172607,0.3249512,27.64122,213.6412,16.55725
0.3256836,0.9492188,0.2807617,23.54962,224.9084,-15.89313
0.512207,0.888916,-0.2414551,46.42748,250.1298,-36.80153
-0.01049805,1.091309,0.1333008,69.70992,250.1298,-32.46565
0.7753906,0.862793,-0.2883301,39.51908,175.8779,-48.74046
0.3391113,0.9931641,-0.3994141,49.15267,129.5267,-66.39695
-0.3022461,1.15625,-0.7565918,12.84733,250.1298,-90.74046
-0.2529297,0.942627,-0.4655762,15.9542,208.7939,-9.061069
0.0,0.9909668,-0.3554688,-7.748092,250.1298,-18.01527
0.06884766,1.015381,-0.04394531,3.503817,93.1832,46.00763
0.6606445,1.124756,0.03491211,-9.40458,-34.96183,-25.90076
-0.2646484,0.9753418,0.08544922,-13.27481,-7.007634,-36.0458
-0.3554688,0.9848633,0.07202148,2.885496,-26.07634,21.0458
0.03173828,0.9880371,-0.04467773,-0.1908397,-35.34351,26.21374
0.1469727,0.9768066,-0.09350586,10.07634,-38.57252,28.08397
0.1765137,0.9685059,-0.1958008,10.48092,-22.54198,24.91603
0.1833496,0.9528809,-0.2980957,4.969466,3.076336,27.19084
0.5563965,1.01709,-0.2976074,-1.389313,-6.519084,-3.717557
0.1611328,0.9572754,-0.2541504,-10.74809,1.778626,-8.343512
0.138916,0.9570313,-0.1796875,-10.38931,-1.030534,-8.740458
0.0559082,1.005127,-0.05981445,-5.251908,0.2290076,-4.923664
0.03295898,0.9726563,-0.07568359,-1.435114,-0.7480916,0.02290076
0.03515625,0.9821777,-0.09790039,4.480916,-0.8931297,3.70229
0.09204102,0.9851074,-0.1501465,5.580153,-1.740458,5.167939
0.1625977,0.9731445,-0.2473145,1.885496,-1.19084,2.022901
0.184082,0.9638672,-0.2458496,-1.832061,-0.7557252,-0.7480916
0.1704102,0.9716797,-0.2097168,-4.534351,-0.5343512,-2.572519
0.1228027,0.9736328,-0.1599121,-4.687023,0.06870229,-2.412214
0.09301758,0.9760742,-0.1228027,-2.916031,-0.2900764,-0.8244275
0.07666016,0.9880371,-0.1191406,-0.1832061,-0.6564885,0.7480916
0.1020508,0.9748535,-0.1320801,2.236641,-0.5801527,1.923664
0.1257324,0.9692383,-0.1687012,2.641221,-0.9465649,1.717557
0.1472168,0.9748535,-0.2185059,1.152672,-0.9694656,0.648855
0.1418457,0.9675293,-0.223877,-1.274809,-0.6259542,-0.3435115
0.1442871,0.9707031,-0.2055664,-2.793893,-0.4885496,-0.9312977
0.1166992,0.9743652,-0.1523438,-3.366412,-0.3587786,-0.5267176
0.107666,0.9750977,-0.1450195,-1.625954,-0.3740458,0.1984733
0.1105957,0.9780273,-0.1350098,0.09160305,-0.648855,0.7099237
0.1201172,0.9748535,-0.1630859,1.267176,-0.9541985,0.9236641
0.1262207,0.9729004,-0.1870117,0.9847328,-0.9389313,0.5419847
0.1340332,0.9729004,-0.1943359,-0.4198473,-0.648855,0.2366412
0.1381836,0.9729004,-0.1911621,-1.755725,-0.2824428,-0.1221374
0.1228027,0.9750977,-0.171875,-2.183206,-0.3435115,-0.129771
0.1181641,0.9699707,-0.1657715,-1.709924,-0.4351145,-0.09160305
0.1164551,0.9770508,-0.1484375,-0.8015267,-0.648855,0.2061069
0.1113281,0.9719238,-0.1484375,0.09923664,-0.6259542,0.4885496
0.1193848,0.9724121,-0.1772461,0.2977099,-0.8549618,0.3740458
0.1293945,0.9733887,-0.1843262,0.04580153,-0.5954198,0.3129771
0.1279297,0.9709473,-0.1862793,-0.7633588,-0.7022901,0.007633588
0.1276855,0.9794922,-0.1828613,-1.549618,-0.4351145,0.01526718
0.1279297,0.9772949,-0.170166,-1.435114,-0.5267176,0.07633588
0.1201172,1.000488,-0.2001953,-0.2824428,0.2900764,0.5801527
0.1369629,0.9765625,-0.171875,-0.5496183,-0.1984733,0.1221374
0.130127,0.9682617,-0.1767578,-1.328244,-0.3129771,0.1145038
0.1245117,0.9692383,-0.1716309,-1.045802,-0.389313,-0.08396947
0.1235352,0.9750977,-0.1655273,-0.961832,-0.7175572,0.2290076
0.125,0.9741211,-0.1682129,-0.7099237,-0.4580153,0.0
0.1240234,0.980957,-0.1716309,-0.2213741,-0.5648855,0.2519084
0.1264648,0.9746094,-0.1728516,-0.389313,-0.648855,0.1374046
0.119873,0.9741211,-0.1791992,-0.6946565,-0.5038168,-0.03816794
0.1210938,0.9760742,-0.1789551,-0.8167939,-0.3969466,0.1908397
0.1257324,0.9707031,-0.173584,-1.076336,-0.4045802,0.01526718
0.1245117,0.9750977,-0.1669922,-0.9541985,-0.4656488,-0.03816794
ax,ay,az,gx,gy,gz
0.1240234,0.9709473,-0.1743164,0.2824428,-0.8473283,0.04580153
0.08984375,1.027832,-0.1850586,1.778626,-1.206107,1.312977
0.08251953,0.9807129,-0.1721191,3.251908,-1.053435,-0.2061069
0.4003906,0.942627,-0.1428223,-1.068702,-59.48092,-13.21374
0.3259277,0.9655762,-0.4125977,-20.05343,-186.9237,-21.22901
-0.3100586,0.9123535,-0.2473145,-35.74046,-192.9389,-59.13741
-0.3266602,1.014404,-0.3330078,-12.35878,-248.1832,21.05343
-0.4174805,1.090332,-0.08520508,-28.43511,-236.4427,35.07634
0.2314453,0.8974609,0.05151367,-31.47328,-248.1832,45.60305
0.03955078,1.178711,-0.01855469,-11.40458,-248.1832,47.16031
0.8925781,0.9562988,-0.0402832,-28.07634,-248.1832,10.74809
0.4992676,0.9436035,-0.2854004,-22.03817,-248.1832,3.236641
-0.05786133,1.136475,-0.046875,-36.77863,-248.1832,9.679389
0.3901367,0.8718262,-0.3037109,-29.96947,-248.1832,-1.908397
-0.1374512,1.159912,0.1403809,-48.75573,-193.2977,17.71756
-0.2458496,1.198975,0.189209,-13.58779,135.6794,36.45802
0.1564941,0.8144531,-0.05029297,-8.893129,210.6183,43.59542
0.2976074,0.942627,0.1713867,27.17557,200.0611,70.30534
0.3417969,1.002197,0.1723633,34.42748,250.1298,-9.167939
0.5991211,0.9230957,-0.09350586,47.48092,186.4657,-23.09924
0.3901367,1.028076,-0.06811523,57.47328,151.3969,-29.8855
0.1557617,0.9975586,-0.1555176,45.34351,247.5114,-58.60305
0.05102539,0.9099121,-0.5114746,49.9313,202.0916,-35.9771
-0.1157227,0.8244629,-0.6887207,21.78626,250.1298,-31.84733
0.5981445,1.080078,-0.326416,9.679389,163.5191,-36.03817
0.8554688,0.8427734,-0.5800781,-2.40458,-48.86259,-64.87023
-0.3974609,1.064941,-0.473877,-21.12214,19.75573,-70.45038
-0.8466797,0.9499512,-0.07861328,-24.65649,12.9771,20.27481
-0.004882813,1.01001,0.08325195,-7.091603,-5.465649,22.01527
0.078125,0.9814453,0.03833008,3.427481,-17.25191,26.67175
0.1462402,0.9375,-0.06689453,11.59542,-41.61069,39.03053
0.15625,0.9848633,-0.1491699,11.61069,-24.83206,34.60305
0.3991699,0.9848633,-0.1975098,10.84733,-1.137405,5.10687
0.2797852,0.9064941,-0.3742676,4.732824,-1.946565,-3.709924
0.199707,0.9665527,-0.3491211,-5.419847,-0.7251908,-7.08397
0.1220703,0.9736328,-0.2509766,-11.26718,0.4427481,-7.801527
0.05078125,0.9733887,-0.1420898,-10.60305,1.10687,-4.473282
0.02832031,0.9899902,-0.078125,-6.931298,0.1755725,0.007633588
0.03491211,0.9875488,-0.04589844,-1.496183,0.1679389,3.480916
0.09521484,0.9748535,-0.08422852,4.862596,-1.221374,4.480916
0.1418457,0.9746094,-0.1481934,5.305344,-1.366412,2.48855
0.1694336,0.9775391,-0.2280273,6.08397,-1.778626,0.2748091
0.1599121,0.9729004,-0.2641602,1.030534,-1.366412,-1.633588
0.1164551,0.9633789,-0.2580566,-3.580153,-0.3587786,-1.854962
0.08935547,0.9699707,-0.1713867,-6.122138,0.05343511,-0.1755725
0.09765625,0.9858398,-0.1220703,-3.305344,-0.1832061,0.6641222
0.1020508,0.9816895,-0.1000977,-0.6641222,-0.07633588,1.160305
0.1159668,0.9765625,-0.1315918,2.259542,-0.8091603,0.7633588
0.1345215,0.9765625,-0.1574707,3.328244,-1.244275,0.2442748
0.1240234,0.9667969,-0.203125,1.801527,-0.8396947,-0.3587786
0.1181641,0.9733887,-0.2167969,-0.259542,-0.7099237,-0.1755725
0.1125488,0.9694824,-0.220459,-2.694656,-0.4580153,-0.1374046
0.1088867,0.9719238,-0.1721191,-3.198473,-0.4427481,0.351145
0.1130371,0.9755859,-0.1486816,-2.78626,-0.3129771,0.1679389
0.1140137,0.9748535,-0.1384277,-1.267176,-0.4580153,0.02290076
0.1206055,0.973877,-0.1418457,0.4885496,-0.7099237,-0.1755725
0.1113281,0.9777832,-0.1821289,-1.80916,-0.4198473,0.5267176
0.114502,0.9736328,-0.175293,-2.343511,-0.3816794,0.4045802
0.1179199,0.9821777,-0.1523438,-1.236641,-0.389313,0.07633588
0.1140137,0.9790039,-0.154541,-0.2519084,-0.3053435,-0.05343511
0.1174316,0.9787598,-0.1542969,0.259542,-0.5114504,0.1374046
0.1157227,0.9782715,-0.1674805,0.5877862,-0.8473283,0.1755725
0.1166992,0.9692383,-0.184082,-0.1832061,-0.5419847,0.1755725
0.1118164,0.9680176,-0.182373,-1.099237,-0.4580153,0.1984733
0.114502,0.9748535,-0.1762695,-1.48855,-0.519084,0.1526718
0.1149902,0.9797363,-0.1643066,-1.557252,-0.389313,0.1450382
0.1120605,0.9753418,-0.1552734,-1.122137,-0.3969466,0.03816794
0.1091309,0.9729004,-0.154541,-0.3587786,-0.6793893,0.2671756
0.1113281,1.012695,-0.03222656,3.770992,-0.2671756,0.007633588
0.1298828,1.019775,-0.0234375,5.351145,-1.244275,1.305344
0.1096191,0.9782715,-0.1196289,-0.3816794,-1.564886,0.5877862
0.1213379,0.9741211,-0.1777344,-0.8244275,-1.412214,0.3129771
0.1230469,0.9814453,-0.171875,-1.496183,-0.832061,0.01526718
0.1123047,0.979248,-0.1552734,-1.175573,-0.4580153,0.0
0.1098633,0.980957,-0.1491699,-0.4503817,-0.6259542,0.1603053
0.1079102,0.9758301,-0.166748,-0.3282443,-0.480916,0.2442748
0.109375,0.9782715,-0.1687012,0.007633588,-0.4045802,0.4732824
0.1201172,0.9682617,-0.1809082,-0.2977099,-0.6030535,0.1526718
0.1142578,0.9716797,-0.1733398,-0.7022901,-0.4580153,0.1832061
0.114502,0.9760742,-0.1669922,-1.045802,-0.5877862,0.129771
0.107666,0.9763184,-0.1782227,-1.068702,-0.480916,0.1374046
0.1157227,0.9692383,-0.1687012,-0.9465649,-0.389313,0.1832061
0.119873,0.9816895,-0.1601563,-0.4198473,-0.5648855,0.1526718
0.1132813,0.9755859,-0.1623535,-0.2442748,-0.4732824,0.2900764
0.1171875,0.9785156,-0.1696777,-0.4580153,-0.5648855,0.1068702
0.1186523,0.9799805,-0.1782227,-0.5877862,-0.5496183,0.1679389
ax,ay,az,gx,gy,gz
0.1113281,0.9689941,-0.1176758,0.8931297,0.3587786,-0.3664122
0.1557617,1.034424,-0.006591797,8.427481,-1.274809,1.061069
0.0925293,1.013428,-0.1008301,1.167939,-79.35878,-4.435114
-0.02587891,0.9768066,-0.05175781,-22.58779,-210.1985,-33.16031
-0.2661133,0.8095703,-0.3586426,-26.00763,-207.3053,-6.633588
-0.1018066,0.9868164,-0.4030762,-12.19084,-248.1832,26.58015
-0.1486816,1.167236,0.01196289,-48.10687,-248.1832,8.450381
0.04418945,0.7578125,-0.3474121,-5.832061,-248.1832,41.63359
0.1411133,1.332031,-0.06005859,-23.58015,-248.1832,39.52672
0.1655273,0.7380371,-0.2519531,-32.50382,-248.1832,9.358779
0.2717285,0.9858398,-0.484375,-23.91603,-248.1832,-9.022901
0.1062012,1.031982,0.1013184,-57.52672,-248.1832,-5.80916
0.3491211,0.8974609,-0.3811035,-21.62595,-248.1832,-21.78626
-0.08203125,1.259521,0.3735352,-54.65649,-248.1832,-2.641221
-0.3984375,1.080811,-0.02124023,-20.16794,26.23664,25.38168
-0.015625,0.8654785,-0.02099609,-4.061069,188.4122,51.52672
0.1682129,0.9450684,0.1640625,29.32825,250.1298,69.16794
0.5461426,1.025635,0.1809082,22.42748,250.1298,5.664122
0.6501465,0.8850098,-0.04418945,58.71756,227.4886,-12.33588
0.3703613,1.054932,0.1074219,47.16794,184.6718,-28.38931
0.1494141,0.9211426,-0.2644043,41.48092,162.9542,-31.19847
0.01318359,0.9328613,-0.4501953,38.29008,189.2137,-28.32825
0.1025391,1.031006,-0.5539551,37.77099,196.229,-30.47328
0.185791,0.8764648,-0.5849609,7.610687,137.8397,-26.50382
-0.3005371,0.9509277,-0.3139648,-12.84733,250.1298,-19.03053
0.1225586,0.8930664,-0.1809082,-1.969466,148.3893,-25.47328
1.099121,1.108643,-0.204834,-3.748092,-52.8168,-35.14504
-0.3571777,1.043457,-0.7575684,-13.50382,18.84733,-69.21374
-0.6862793,0.9077148,-0.0009765625,-7.61832,1.503817,14.58015
-0.08447266,1.015625,-0.01147461,2.198473,-3.167939,25.92366
0.09277344,1.002197,-0.05151367,9.335877,-12.22137,27.87023
0.1411133,0.940918,-0.1984863,9.603053,-27.12214,39.75573
0.1757813,0.972168,-0.2338867,7.427481,-13.16031,13.46565
0.2041016,0.9526367,-0.3374023,3.312977,0.04580153,3.335878
0.2548828,0.9628906,-0.2902832,-5.267176,-1.183206,-4.160306
0.1762695,0.96875,-0.236084,-9.80916,0.5801527,-7.29771
0.1032715,0.9748535,-0.1364746,-8.511451,0.7328244,-6.458015
0.09277344,0.982666,-0.157959,4.877862,-1.114504,4.320611
0.1342773,0.9724121,-0.2102051,2.206107,-1.648855,2.259542
0.1601563,0.9768066,-0.2373047,0.9160305,-1.076336,-0.2137404
0.1518555,0.9643555,-0.2348633,-2.992366,-0.8396947,-2.335878
0.09375,0.9785156,-0.1533203,-4.244275,0.2900764,-2.0
0.06616211,0.9770508,-0.1337891,-3.427481,0.09923664,-0.1450382
0.07055664,0.9848633,-0.1101074,-0.2748091,-0.389313,1.320611
0.08862305,0.9812012,-0.1264648,1.641221,-0.6641222,1.916031
0.1103516,0.9753418,-0.1591797,2.496183,-0.9770992,1.412214
0.1228027,0.979248,-0.1953125,1.557252,-0.9083969,0.5954198
0.1196289,0.96875,-0.2158203,-0.5038168,-0.6641222,-0.4580153
0.1171875,0.9746094,-0.2006836,-2.549618,-0.6259542,-0.8396947
0.1005859,0.9741211,-0.1726074,-3.160305,-0.2137404,-0.7557252
0.08959961,0.9799805,-0.1630859,-3.358779,-0.2213741,-0.2442748
0.09350586,0.9782715,-0.1403809,-1.320611,-0.351145,0.2900764
0.0949707,0.9790039,-0.1391602,-0.09160305,-0.4351145,0.4503817
0.1018066,0.9763184,-0.1550293,0.961832,-0.7633588,0.519084
0.1032715,0.9731445,-0.1689453,0.9083969,-0.8396947,0.2748091
0.107666,0.9765625,-0.171875,-0.1984733,-0.7328244,-0.02290076
0.1066895,0.9770508,-0.1906738,-1.541985,-0.5419847,0.09160305
0.1040039,0.9765625,-0.1706543,-2.435115,-0.3740458,0.06870229
0.1025391,0.9819336,-0.1516113,-1.923664,-0.2290076,-0.03053435
0.1123047,0.9758301,-0.1489258,-1.091603,-0.4122138,-0.1450382
0.1035156,0.9755859,-0.1491699,0.01526718,-0.6793893,0.1526718
0.1027832,0.9768066,-0.1589355,0.3129771,-0.740458,0.2671756
0.09643555,0.9758301,-0.1757813,0.09923664,-0.648855,0.129771
0.1030273,0.9750977,-0.1782227,-0.6717557,-0.5419847,-0.03816794
0.107666,0.9797363,-0.1801758,-1.221374,-0.4122138,0.07633588
0.1032715,0.9790039,-0.1691895,-1.641221,-0.3969466,0.1450382
0.1052246,0.9707031,-0.1569824,-1.335878,-0.4122138,0.3053435
0.09936523,0.9782715,-0.1555176,-0.610687,-0.4961832,0.0610687
0.1066895,0.8989258,-0.3000488,-4.603054,0.2977099,-0.2748091
0.1188965,0.8498535,-0.3203125,-0.648855,-0.5572519,-1.366412
0.08325195,0.9350586,-0.1477051,-0.06870229,-0.3053435,0.1679389
0.09912109,0.9797363,-0.161377,-1.274809,-0.08396947,0.1221374
0.1098633,0.9824219,-0.1464844,-1.122137,-0.9847328,0.1374046
0.1008301,0.9885254,-0.1660156,-1.137405,-0.778626,0.3206107
0.1040039,0.9816895,-0.1623535,-0.8167939,-0.6412213,0.1450382
0.09716797,0.9743652,-0.1665039,-0.8396947,-0.778626,0.4274809
0.1044922,0.9760742,-0.1645508,-0.259542,-0.5954198,0.2290076
0.1018066,0.9755859,-0.1726074,-0.4274809,-0.5496183,0.2137404
0.09912109,0.9733887,-0.1757813,-0.9083969,-0.519084,0.09923664
0.1064453,0.9758301,-0.1716309,-1.045802,-0.4580153,0.1450382
0.1005859,0.9743652,-0.1669922,-1.160305,-0.4351145,0.1832061
0.09521484,0.972168,-0.1586914,-0.6564885,-0.5801527,0.2290076
0.1010742,0.9785156,-0.161377,-0.7709923,-0.5954198,0.03816794
0.1032715,0.9790039,-0.1628418,-0.4045802,-0.519084,0.2213741
ax,ay,az,gx,gy,gz
0.1015625,0.9680176,-0.3027344,-5.671756,-0.4885496,0.5648855
0.07226563,0.8684082,-0.3532715,-5.396946,1.251908,-1.396947
0.08642578,0.942627,-0.1767578,-1.358779,-0.4045802,-0.1832061
0.1135254,0.9562988,-0.1833496,5.992366,-67.0,-29.61069
0.02197266,0.9365234,0.1140137,-28.42748,-227.3664,-28.9084
-0.1169434,0.842041,-0.4460449,-14.1374,-221.542,-9.320611
-0.3088379,1.143066,-0.1225586,-15.27481,-208.542,22.14504
0.1245117,0.9223633,-0.0703125,-31.07634,-248.1832,-4.40458
-0.2207031,1.018799,-0.4348145,2.862595,-240.2137,70.66412
0.9365234,1.054688,0.1782227,-58.64122,-248.1832,20.12977
0.3027344,0.6467285,-0.6142578,-2.839695,-248.1832,12.67939
-0.1228027,1.12085,0.03955078,-36.57252,-249.8168,11.14504
0.2473145,0.6660156,-0.2807617,-34.62595,-248.1832,0.6030535
-0.1081543,1.016357,0.03759766,-39.38931,-148.0763,9.793893
-0.1281738,1.010742,-0.09985352,-6.801527,104.5038,19.65649
0.05859375,1.056885,0.07763672,-11.27481,187.4198,37.61069
0.2023926,0.8730469,0.04980469,20.52672,246.1679,57.57252
1.492188,1.250488,0.4926758,29.23664,250.1298,-3.648855
0.3054199,0.8220215,-0.0456543,39.91603,236.8626,-24.54962
0.1535645,1.064697,-0.3605957,32.34351,181.3053,-16.93893
0.1713867,0.8837891,-0.4572754,3.80916,154.1985,-20.70992
-0.1442871,1.023926,-0.3984375,-2.778626,227.3282,14.61069
-0.03320313,0.9897461,-0.1298828,-8.358779,250.1298,-4.305344
0.3022461,0.9628906,-0.1362305,4.854962,229.0763,-8.656488
0.2851563,1.011719,0.02587891,13.36641,143.7863,-21.41985
0.09301758,0.9819336,-0.05322266,14.56489,69.69466,-19.42748
0.192627,0.9680176,-0.2612305,14.27481,-24.36641,-25.74809
-0.2651367,0.9685059,-0.3342285,7.847328,-7.389313,-19.38168
-0.3349609,0.9333496,-0.284668,-2.557252,-9.137404,20.87786
0.003173828,0.9650879,-0.2316895,-4.664122,-17.8855,33.35115
0.1542969,0.9643555,-0.1804199,-7.885496,-25.29008,38.45802
0.2312012,1.001221,-0.168457,-8.992367,9.053435,12.84733
0.3098145,0.9611816,-0.1320801,-0.2442748,-3.59542,-0.3282443
0.2424316,1.0,-0.078125,1.259542,-0.7328244,-7.427481
0.2109375,0.9494629,-0.1560059,-0.1450382,-2.564885,-11.93893
0.07226563,0.9865723,-0.1804199,3.580153,-1.961832,-10.35114
-0.01220703,0.986084,-0.2045898,1.10687,-0.5572519,-3.312977
-0.0402832,0.9729004,-0.2060547,-2.358779,-0.4198473,3.969466
0.03198242,0.9790039,-0.1777344,-3.419847,-0.6030535,6.526718
0.1103516,0.9846191,-0.1604004,-3.320611,-0.1526718,5.778626
0.1738281,0.9782715,-0.1469727,-0.3969466,-0.6870229,-0.480916
0.1711426,0.980957,-0.1540527,1.091603,-1.076336,-3.427481
0.1105957,0.9753418,-0.1738281,1.221374,-0.8167939,-3.549618
0.05737305,0.9726563,-0.2016602,-0.0610687,-0.3587786,-1.526718
0.05029297,0.9750977,-0.1816406,-0.519084,-0.5419847,0.9847328
0.06030273,0.9650879,-0.1743164,-1.816794,-0.519084,2.618321
0.1018066,0.9753418,-0.1647949,-1.862595,-0.4503817,2.541985
0.1350098,0.9780273,-0.1494141,-0.8778625,-0.5038168,0.8396947
0.1350098,0.9790039,-0.1604004,-0.5267176,-0.7480916,-1.030534
0.1171875,0.9755859,-0.168457,-0.1908397,-0.5954198,-1.633588
0.09228516,0.9768066,-0.1831055,-0.519084,-0.7480916,-1.083969
0.08251953,0.9746094,-0.1843262,-0.7709923,-0.3053435,0.1145038
0.07421875,0.9824219,-0.171875,-1.099237,-0.3969466,1.0
0.09521484,0.9819336,-0.1582031,-1.229008,-0.4427481,1.229008
0.1118164,0.9760742,-0.1650391,-0.8167939,-0.610687,0.5038168
0.1196289,0.9748535,-0.1674805,-0.3664122,-0.5801527,-0.3206107
0.1049805,0.9824219,-0.1635742,-0.351145,-0.7175572,-0.5801527
0.09082031,0.9775391,-0.1655273,-0.5496183,-0.4045802,-0.2290076
0.08618164,0.9748535,-0.182373,-0.8625955,-0.6183206,0.2900764
0.08496094,0.9748535,-0.1662598,-1.099237,-0.3740458,0.7251908
0.1025391,0.972168,-0.1726074,1.114504,0.5114504,-0.4732824
0.152832,1.00415,-0.03198242,3.625954,-3.198473,0.4656488
0.1008301,1.021729,-0.1992188,-0.2290076,-1.877863,0.9160305
0.107666,0.9689941,-0.1604004,0.09923664,-2.21374,-0.3053435
0.1032715,0.967041,-0.1782227,-0.7251908,-1.045802,-0.04580153
0.09887695,0.9768066,-0.1765137,-0.8473283,-0.2519084,0.2748091
0.08789063,0.9748535,-0.1784668,-1.412214,-0.2366412,0.3816794
0.09692383,0.9697266,-0.1740723,-0.9083969,-0.4274809,0.3053435
0.1030273,0.9780273,-0.1657715,-0.740458,-0.7099237,0.3358779
0.1025391,0.9750977,-0.1655273,-0.4885496,-0.5419847,-0.129771
0.09350586,0.9794922,-0.170166,-0.4274809,-0.4580153,0.007633588
0.09985352,0.9758301,-0.1711426,-0.5801527,-0.610687,0.07633588
0.09790039,0.9726563,-0.1740723,-0.8625955,-0.5954198,0.1679389
ax,ay,az,gx,gy,gz
0.09790039,0.972168,-0.1650391,-1.022901,-0.5038168,0.1755725
0.1196289,1.063721,-0.06445313,5.312977,-2.51145,0.5725191
0.1369629,1.070557,-0.01513672,-3.496183,-62.41221,-8.503817
0.5432129,0.8200684,-0.1589355,-6.427481,-203.7786,-16.06107
0.1252441,1.029053,0.008300781,-26.73282,-248.1832,-20.52672
-0.3540039,1.036865,-0.2429199,-13.79389,-203.7328,-3.748092
0.004150391,1.120605,0.3183594,-30.83969,-248.1832,11.22901
-0.09521484,0.8737793,-0.4396973,2.732824,-248.1832,60.06107
0.0769043,1.083496,0.2272949,-46.50382,-241.8473,36.9542
0.3803711,0.815918,-0.8046875,-3.717557,-248.1832,34.48855
0.002929688,1.225098,-0.005615234,-47.35115,-248.1832,15.61832
0.4550781,0.769043,-0.513916,-26.75573,-248.1832,11.76336
0.2478027,0.9777832,-0.3972168,-39.70992,-248.1832,-3.80916
0.2514648,0.9519043,0.03100586,24.18321,239.7481,60.45802
1.353027,1.269775,0.3493652,26.26718,250.1298,2.526718
0.5019531,0.9030762,0.005126953,50.31298,244.542,-15.64122
0.5170898,0.9663086,-0.144043,51.51145,148.626,-27.87023
0.04858398,0.9536133,-0.1306152,37.8168,157.4733,-40.32061
-0.07983398,0.8771973,-0.2976074,42.84733,203.4351,-31.50382
0.08740234,1.006836,-0.4362793,37.32061,186.5496,-24.29771
0.1408691,0.942627,-0.5673828,12.51145,152.8931,-19.98473
-0.2268066,0.9655762,-0.3825684,-0.9847328,250.1298,-2.366412
0.06567383,0.965332,-0.2641602,-6.480916,250.1298,-21.40458
-0.09082031,1.020264,0.04296875,5.572519,250.1298,37.83969
0.534668,0.8874512,0.02880859,7.053435,69.14503,-32.41221
0.3134766,0.9663086,0.1796875,4.183206,-62.15267,-57.94656
-0.3500977,1.042969,-0.09692383,11.00763,-5.244275,-33.44275
-0.5610352,0.9758301,-0.1367188,2.961832,6.59542,18.22137
-0.04150391,0.9799805,-0.2175293,2.480916,-4.29771,25.33588
0.1152344,0.9909668,-0.1645508,4.709924,-20.25954,34.14504
0.1567383,0.9643555,-0.2573242,-0.6793893,-17.37405,38.41985
0.4362793,1.024902,-0.1921387,-3.137405,-1.129771,5.671756
0.2543945,0.9511719,-0.1945801,-2.305344,-2.862595,-2.954198
0.1906738,0.9733887,-0.1503906,-3.083969,-0.5725191,-7.08397
0.1342773,0.9768066,-0.1296387,-3.801527,-1.251908,-8.114504
0.04931641,0.9829102,-0.1306152,-1.0,-0.1221374,-5.59542
0.008544922,0.9858398,-0.1494141,-0.06870229,-0.3282443,-0.7480916
0.0078125,0.9807129,-0.1625977,0.9312977,-0.2290076,3.618321
0.06494141,0.972168,-0.1730957,0.6717557,-1.549618,5.129771
0.1159668,0.9726563,-0.1916504,0.03053435,-0.8015267,3.793893
0.1599121,0.9750977,-0.1877441,-1.038168,-1.335878,0.9847328
0.152832,0.9726563,-0.1838379,-1.442748,-1.099237,-1.977099
0.1225586,0.9760742,-0.1743164,-1.351145,-0.351145,-2.877863
0.08276367,0.9851074,-0.1682129,-1.473282,-0.4503817,-2.053435
0.06079102,0.9733887,-0.1672363,-1.282443,-0.4503817,0.04580153
0.05712891,0.9863281,-0.1638184,-0.6717557,-0.4274809,1.664122
0.08349609,0.9807129,-0.1601563,0.0,-0.8396947,2.129771
0.1218262,0.9768066,-0.1577148,0.07633588,-0.8091603,0.9160305
0.1311035,0.9697266,-0.1811523,-0.259542,-0.870229,-0.5267176
0.1115723,0.9741211,-0.189209,-0.7175572,-0.6335878,-1.183206
0.09472656,0.9807129,-0.1726074,-1.557252,-0.4351145,-0.5114504
0.07373047,0.9880371,-0.1584473,-1.381679,-0.2442748,0.5114504
0.08227539,0.9782715,-0.1513672,-0.9541985,-0.2671756,0.832061
0.09960938,0.9755859,-0.140625,-0.259542,-0.5419847,1.068702
0.1103516,0.9765625,-0.1611328,-0.1832061,-0.740458,0.3129771
0.1064453,0.9785156,-0.1799316,0.08396947,-0.740458,-0.389313
0.1047363,0.9794922,-0.1750488,-0.5877862,-0.6870229,-0.4198473
0.09594727,0.9782715,-0.1757813,-1.396947,-0.4656488,-0.03053435
0.09057617,0.9782715,-0.1689453,-1.312977,-0.2977099,0.2442748
0.09619141,0.9748535,-0.1689453,-1.19084,-0.389313,0.6870229
0.1020508,0.9714355,-0.1582031,-0.6793893,-0.3664122,0.480916
0.1013184,0.9714355,-0.1582031,-0.1450382,-0.5496183,0.3740458
0.1020508,0.9807129,-0.1606445,-0.07633588,-0.8244275,0.03053435
0.1000977,0.9743652,-0.1733398,-0.5648855,-0.5877862,-0.2519084
0.09472656,0.9785156,-0.1740723,-1.045802,-0.610687,-0.1221374
0.09008789,1.005371,-0.1091309,1.664122,-0.02290076,-0.3816794
0.1362305,1.025879,-0.009033203,3.610687,-2.374046,1.19084
0.08447266,1.018555,-0.1689453,-1.015267,-1.679389,1.083969
0.1003418,0.9675293,-0.1518555,-0.259542,-1.374046,0.3053435
0.1115723,0.9790039,-0.1652832,-0.1450382,-1.114504,-0.1755725
0.09570313,0.9785156,-0.1765137,-0.3358779,-0.8396947,0.1603053
0.08935547,0.9724121,-0.1948242,-1.480916,-0.5267176,-0.03053435
0.09960938,0.973877,-0.1843262,-1.320611,-0.4427481,0.1603053
0.09643555,0.9768066,-0.1625977,-1.564886,-0.2442748,0.2442748
0.09741211,0.9724121,-0.1657715,-1.053435,-0.351145,0.2213741
0.1013184,0.9824219,-0.1691895,-0.5038168,-0.5419847,0.2366412
0.09838867,0.9772949,-0.1643066,-0.2366412,-0.6412213,0.2748091
0.09570313,0.9816895,-0.1630859,-0.2977099,-0.4961832,0.1221374
ax,ay,az,gx,gy,gz
0.09936523,0.9624023,-0.2592773,-4.312977,-0.6335878,0.6946565
0.1047363,0.979248,-0.1430664,-0.6183206,-0.5343512,0.1755725
0.142334,0.9733887,-0.1782227,-1.59542,-68.94656,-19.75573
0.3237305,0.9904785,-0.009765625,-13.41985,-248.1832,-30.49618
-0.1723633,0.8061523,-0.4055176,-13.61069,-226.0534,-7.580153
-0.3227539,1.125732,-0.2712402,-16.28244,-179.0611,14.0687
0.02319336,0.800293,-0.1694336,-29.50382,-248.1832,4.709924
-0.1999512,0.9411621,-0.3037109,-2.40458,-211.0,48.17557
0.1875,0.8154297,-0.04589844,-44.78626,-248.1832,18.9084
0.6308594,0.9228516,-0.5114746,-8.984733,-248.1832,14.07634
0.02832031,1.214111,0.1481934,-38.25954,-248.1832,11.9771
0.5913086,0.7919922,-0.2092285,-32.49618,-248.1832,-6.236641
-0.1679688,1.24707,-0.2702637,-13.0687,-245.2672,-6.748092
0.4204102,0.8012695,0.04907227,-47.47328,-248.1832,-45.70229
-0.4558105,0.921875,-0.2727051,-22.05343,-88.70229,-16.0916
-0.8078613,0.6889648,-0.4987793,-4.778626,186.2595,35.41985
0.1218262,1.075684,-0.1052246,7.534351,250.1298,42.0916
0.2199707,0.8518066,-0.04174805,14.81679,250.1298,30.84733
0.7121582,1.061279,0.04980469,42.20611,227.2519,-7.442748
0.2932129,0.8806152,-0.08032227,34.57252,219.2977,-33.22901
0.392334,1.036621,-0.0324707,44.12214,140.3206,-21.90076
0.03515625,0.9594727,-0.1984863,40.0458,188.3512,-20.87023
-0.07006836,0.9924316,-0.3793945,35.67939,212.0382,-17.29008
-0.02075195,1.060059,-0.3220215,30.43511,189.7023,-4.450382
0.5625,1.05835,-0.6337891,11.64886,65.03053,-41.40458
-0.2683105,1.234131,-0.2019043,-28.93893,-57.64122,-30.01527
-0.532959,0.8178711,-0.5605469,-30.67939,25.16794,10.55725
-0.1643066,1.12915,-0.01831055,-18.70992,2.59542,38.29008
0.07275391,0.9379883,0.01733398,-17.70229,1.755725,39.60305
0.1164551,0.9702148,0.07275391,-1.709924,-5.854962,41.96183
0.2902832,0.9978027,0.02832031,8.877863,-11.9084,10.24428
0.2419434,0.9851074,-0.1394043,11.03817,-4.389313,-3.816794
0.2397461,0.9846191,-0.1491699,12.9771,-10.75572,-6.221374
0.173584,0.970459,-0.2766113,7.763359,-2.427481,-12.61069
0.09350586,0.9536133,-0.2126465,6.10687,-0.1526718,-13.41985
-0.009033203,0.947998,-0.2871094,-0.1832061,1.366412,-8.244275
-0.04638672,1.000244,-0.1865234,-6.51145,2.0,1.526718
-0.0168457,0.9619141,-0.1816406,-8.541985,7.885496,3.923664
0.05273438,0.9790039,-0.06811523,-6.946565,-0.7175572,7.519084
0.1369629,0.970459,-0.07861328,-3.007634,-3.610687,4.564886
0.1608887,0.9816895,-0.1132813,-0.2061069,-5.503817,2.961832
0.1704102,0.9777832,-0.1311035,2.183206,-2.564885,-0.870229
0.1474609,0.9804688,-0.151123,2.854962,-4.351145,-3.328244
0.1120605,0.9787598,-0.1970215,2.419847,-1.824428,-4.603054
0.07617188,0.979248,-0.2121582,0.4198473,-3.396947,-3.0
0.04467773,0.9694824,-0.2006836,-2.503817,-0.2442748,-1.221374
0.03686523,0.9838867,-0.1796875,-3.145038,1.175573,1.633588
0.06689453,0.9863281,-0.1411133,-3.648855,0.3282443,2.671756
0.09936523,0.9782715,-0.1396484,-1.885496,0.7099237,1.877863
0.1225586,0.9750977,-0.1374512,-0.5343512,-0.03053435,0.4732824
0.1225586,0.9748535,-0.1452637,0.7022901,-0.2442748,-0.6793893
0.1166992,0.9790039,-0.1604004,1.335878,-1.137405,-1.015267
0.09838867,0.9758301,-0.1777344,0.740458,-1.320611,-1.374046
0.07275391,0.9667969,-0.1884766,-0.6412213,-0.3282443,-0.3664122
0.07470703,0.9787598,-0.182373,-1.389313,-0.351145,1.015267
0.08227539,0.9797363,-0.1506348,-1.992366,-0.4656488,1.167939
0.1105957,0.9753418,-0.1508789,-1.717557,-0.740458,0.3587786
0.1062012,0.9750977,-0.1418457,-0.6793893,-1.083969,-0.2213741
0.1022949,0.9799805,-0.1594238,0.08396947,-1.061069,-0.5648855
0.09350586,0.9775391,-0.1645508,0.8167939,-0.3664122,-0.6030535
0.08178711,0.9731445,-0.1699219,-0.5877862,-0.5496183,-0.2366412
0.08154297,0.9780273,-0.1816406,-0.5496183,-0.2519084,0.4580153
0.09521484,0.980957,-0.1762695,-1.274809,-0.03053435,0.4961832
0.1003418,0.9748535,-0.1584473,-1.541985,-0.3435115,0.5954198
0.09692383,0.9711914,-0.161377,-1.251908,-0.2748091,0.08396947
0.09765625,0.9794922,-0.1560059,-0.7175572,-0.9160305,0.08396947
0.09057617,0.9799805,-0.1513672,-0.2442748,-0.8091603,-0.03053435
0.09570313,0.9787598,-0.1608887,-0.09160305,-0.9465649,0.1068702
0.08911133,0.9782715,-0.1738281,-0.4656488,-1.10687,0.3358779
0.08764648,0.982666,-0.07666016,-0.07633588,-1.633588,0.5419847
0.0690918,0.9604492,-0.140625,-0.519084,-0.3129771,-0.03816794
0.1101074,0.9760742,-0.1542969,-0.4885496,-0.6412213,-0.4351145
0.09838867,0.9677734,-0.1665039,-0.4427481,-0.9160305,-0.09160305
0.1008301,0.9833984,-0.1672363,-0.8015267,-0.5419847,0.03816794
0.09521484,0.9729004,-0.1738281,-1.175573,-0.4961832,0.1908397
0.09716797,0.9770508,-0.1645508,-1.045802,-0.4580153,0.007633588
0.08642578,0.9816895,-0.1665039,-0.8854962,-0.4580153,0.07633588
0.09204102,0.9804688,-0.157959,-0.5725191,-0.3206107,-0.1068702
0.09765625,0.9797363,-0.1645508,-0.4503817,-0.7251908,0.0610687
0.09472656,0.9753418,-0.1625977,-0.5343512,-0.8015267,0.2671756
0.0871582,0.9775391,-0.1738281,-0.5572519,-0.4656488,0.1984733
0.09008789,0.9760742,-0.1696777,-0.8244275,-0.3664122,0.2366412
ax,ay,az,gx,gy,gz
0.08959961,0.9748535,-0.1691895,-0.5877862,-0.4656488,0.3282443
0.08959961,0.8989258,-0.08496094,-2.633588,-4.610687,1.732824
0.9208984,0.8676758,-0.3205566,7.251908,-174.5954,-23.25191
-0.3825684,1.424316,-0.2697754,-20.03053,-184.0763,-10.82443
-0.01855469,0.9123535,-0.1154785,-21.12214,-207.0305,-29.28244
-0.2521973,0.7641602,-0.6853027,1.435114,-202.7328,33.93893
0.004638672,1.064209,0.2780762,-47.24427,-248.1832,-10.18321
0.1533203,0.7094727,-0.4345703,-9.251908,-248.1832,36.22137
