ax,ay,az,gx,gy,gz
-sTwist-,-s-,-s-,-s-,-s-,-s-
0.08911133,0.9750977,-0.1213379,-0.5801527,-0.7862596,0.07633588
0.08666992,0.9958496,-0.1081543,-0.1374046,-0.832061,0.1679389
0.08129883,0.9938965,-0.1171875,-0.5801527,-1.068702,-0.129771
0.6171875,0.9436035,-0.2702637,-4.045802,-98.60305,-15.51908
0.6437988,1.003906,-0.3935547,-12.00763,-206.0076,-29.60305
-0.3549805,1.098877,-0.04760742,-13.83969,-132.4198,2.236641
0.1306152,0.9365234,-0.1040039,-16.48092,-192.8092,-28.9313
-0.05981445,0.9562988,-0.08129883,-7.442748,-248.1832,31.19084
-0.2026367,1.119629,-0.2143555,-15.30534,-125.6183,4.206107
1.325195,0.8015137,-0.2822266,-10.71756,-193.1527,-38.56488
-0.2724609,1.016846,0.1257324,2.282443,-248.1832,39.78626
-0.2758789,1.048828,-0.01513672,-37.77863,-178.1908,-34.70992
-0.2663574,0.8359375,-0.1809082,-0.1755725,-123.9924,7.015267
-0.1435547,1.003418,0.06762695,-4.61832,-31.1145,1.816794
-0.2956543,1.042725,0.1418457,4.236641,198.0992,37.12977
0.1967773,0.9331055,-0.05761719,24.89313,235.5267,46.73283
0.2561035,1.036377,-0.03369141,35.01527,219.313,40.32824
-0.1682129,1.12207,0.04394531,24.35114,250.1298,37.85496
0.4313965,0.8208008,-0.331543,13.56489,250.1298,-14.03817
-0.09106445,1.053467,-0.0456543,31.29008,250.1298,-3.938931
0.1369629,0.9133301,-0.02929688,19.12977,250.1298,-8.740458
0.04492188,0.8696289,-0.3295898,26.63359,250.1298,-20.80153
-0.1171875,1.081299,-0.02124023,18.76336,250.1298,28.51908
0.02368164,0.8845215,-0.09887695,13.70229,250.1298,-22.1145
-0.262207,1.031982,-0.02905273,21.65649,237.9924,27.77863
0.3479004,1.049561,-0.09082031,4.068702,144.7099,-2.48855
-0.2060547,0.9360352,-0.1572266,-1.641221,185.8244,-5.572519
0.5192871,1.043945,-0.003417969,4.977099,52.96183,4.557252
-0.01147461,0.9060059,-0.2277832,-1.045802,37.93893,4.015267
0.1865234,0.9240723,-0.2456055,-3.022901,-4.656488,0.3282443
0.1464844,1.017334,-0.1210938,-0.4427481,-3.824427,0.06870229
0.05517578,0.9875488,-0.07641602,-1.969466,-1.977099,-0.04580153
0.05200195,0.9370117,-0.1113281,-0.5648855,-0.6030535,0.08396947
0.07739258,0.9694824,-0.1623535,1.664122,-0.4045802,0.2442748
0.08129883,0.9689941,-0.1989746,-1.10687,-0.6412213,-0.2061069
0.07983398,0.9929199,-0.1418457,-1.923664,-0.4503817,0.2137404
0.07983398,0.9897461,-0.08300781,-1.496183,-0.5801527,0.5496183
0.09204102,0.9741211,-0.1035156,0.08396947,-0.9541985,0.4961832
0.08129883,0.963623,-0.1508789,0.519084,-0.6412213,0.1755725
0.08154297,0.9763184,-0.1572266,-0.6946565,-0.5648855,-0.03053435
0.08105469,0.9790039,-0.1481934,-1.641221,-0.3282443,0.08396947
0.06787109,0.9763184,-0.1027832,-1.496183,-0.5343512,0.2900764
0.08276367,0.9733887,-0.1035156,-0.389313,-0.4732824,0.5038168
-eTwist-,-e-,-e-,-e-,-e-,-e-
-sTwist-,-s-,-s-,-s-,-s-,-s-
0.07568359,0.9787598,-0.1223145,-0.740458,-0.648855,0.1068702
0.07592773,1.025391,-0.07763672,0.4427481,-0.6259542,0.6259542
0.07006836,0.9487305,-0.1276855,-1.832061,0.0610687,-0.03816794
0.0769043,0.954834,-0.204834,-5.709924,-16.25954,-0.4045802
0.541748,0.9672852,-0.1564941,-6.351145,-165.1374,-15.35878
-0.173584,0.9956055,-0.1120605,-12.78626,-178.6641,-17.98473
-0.2109375,0.9868164,-0.02001953,-11.0,-223.6718,19.37405
-0.08886719,0.9931641,-0.03540039,-12.8855,-187.8855,8.427481
-0.015625,0.958252,-0.0546875,-8.396947,-158.3969,13.69466
0.1081543,0.9445801,-0.1789551,-7.08397,-133.2901,14.06107
0.3718262,0.9157715,-0.1420898,-11.80153,-180.2901,-5.610687
0.6574707,0.9677734,-0.128418,-12.62595,-232.8397,-28.9542
-0.2019043,1.015869,-0.1325684,-12.60305,-156.6641,-7.015267
-0.1108398,0.9746094,-0.08496094,-11.27481,-83.35878,2.59542
-0.07666016,0.9941406,-0.08740234,-2.160305,42.61832,3.961832
-0.2001953,1.055908,0.06640625,9.687023,176.0916,34.14504
-0.1665039,0.9399414,0.3188477,21.80153,250.1298,56.57252
1.133057,0.861084,-0.1542969,21.54198,189.6641,-7.465649
-0.2207031,1.175049,0.1362305,29.18321,250.1298,49.0687
-0.06225586,0.7128906,-0.0769043,17.58779,250.1298,-16.82443
0.2915039,1.000488,-0.2924805,19.07634,212.2214,-19.26718
-0.3513184,1.026367,0.0534668,11.41985,250.1298,-34.21374
0.2145996,0.5280762,-0.7177734,-1.572519,250.1298,-9.091603
-0.145752,0.7214355,-0.03100586,15.96947,198.9695,65.43511
0.1298828,1.229248,-0.140625,9.480916,141.9466,-2.519084
-0.1850586,0.965332,-0.06787109,-6.358778,148.3435,11.64122
0.3339844,0.8676758,-0.2487793,5.40458,41.70229,-3.244275
-0.1335449,1.050537,-0.1054688,3.839695,19.92366,6.824428
0.08203125,1.006104,-0.1254883,-0.8778625,2.496183,9.152672
0.2358398,0.9504395,-0.1594238,-5.648855,-0.1450382,4.175572
0.2199707,0.9594727,-0.09692383,0.259542,-1.89313,-1.564886
0.1416016,0.9855957,-0.06469727,1.603053,-1.290076,-4.29771
0.04833984,0.9726563,-0.1311035,2.251908,-0.6946565,-2.251908
0.02539063,0.9729004,-0.1625977,0.610687,-0.5496183,1.167939
0.04980469,0.9587402,-0.1665039,-4.053435,0.4580153,2.763359
0.1186523,0.9699707,-0.1337891,-1.78626,0.03816794,1.083969
0.1323242,0.9919434,-0.09350586,-0.07633588,-0.6870229,-0.8778625
0.1013184,0.9770508,-0.1176758,0.259542,-0.7480916,-1.099237
0.06933594,0.9631348,-0.152832,-0.6335878,-0.7251908,0.6335878
0.078125,0.9731445,-0.154541,-1.763359,-0.4351145,1.358779
0.1003418,0.9777832,-0.1279297,-1.374046,-0.5114504,0.5419847
0.1071777,0.9833984,-0.1096191,-0.5114504,-0.5496183,-0.480916
0.09667969,0.9746094,-0.130127,0.1832061,-0.7022901,0.3740458
-eTwist-,-e-,-e-,-e-,-e-,-e-
-sTwist-,-s-,-s-,-s-,-s-,-s-
0.0949707,0.9711914,-0.1320801,-0.7251908,-0.4122138,0.389313
0.1025391,0.9814453,-0.06689453,1.274809,-2.648855,1.290076
0.1066895,1.071533,-0.123291,-0.7938931,0.07633588,0.5343512
0.2307129,1.022461,-0.1623535,0.5648855,-15.45802,-0.519084
0.6057129,1.01123,-0.1442871,-5.435114,-130.4886,-12.48092
0.07763672,0.9157715,-0.142334,-14.22137,-228.5725,-11.15267
-0.09619141,0.935791,-0.159668,-21.16794,-248.1832,-4.526718
-0.07006836,1.007568,-0.1027832,-16.54198,-248.1832,3.763359
-0.2341309,0.9755859,-0.0378418,-11.82443,-158.5954,8.129771
-0.1035156,0.9362793,-0.175293,-1.061069,-77.32061,42.48855
0.6962891,0.9902344,-0.2397461,-10.59542,-93.38931,16.27481
0.6762695,0.9560547,-0.06689453,0.7328244,-239.7252,-18.38168
0.08007813,0.8649902,-0.1564941,-30.50382,-242.7634,-33.42748
-0.5649414,1.108887,0.2526855,-22.94657,201.9008,-28.27481
0.1208496,0.6213379,-0.4365234,9.366412,160.7252,66.86259
0.255127,1.458008,0.364502,38.9542,200.145,20.38931
0.1450195,0.8703613,-0.07348633,7.763359,250.1298,-1.931298
0.5759277,0.8005371,-0.4072266,20.91603,221.5496,-12.91603
-0.2885742,1.076172,-0.06811523,27.14504,250.1298,21.28244
1.999939,0.7624512,-0.4711914,7.366412,231.5114,-36.62595
-0.3166504,0.9824219,-0.0690918,24.70992,250.1298,14.31298
0.1655273,1.044434,-0.2375488,2.251908,250.1298,-18.80153
0.3127441,0.8596191,-0.4160156,7.458015,236.2824,-27.48092
-0.2849121,1.12793,0.1325684,31.70229,250.1298,56.00763
0.25,0.8979492,-0.1621094,-5.984733,212.0458,-14.09924
0.4125977,0.7719727,-0.4118652,4.396946,124.0076,-4.40458
0.157959,1.148926,-0.08374023,11.48855,46.93893,-5.114504
-0.08862305,0.9765625,-0.1362305,-4.244275,13.53435,2.748092
-0.09326172,0.8981934,-0.203125,-6.007634,8.816793,12.52672
0.168457,0.9873047,-0.1174316,0.7709923,2.48855,6.160306
0.2304688,1.015869,-0.09008789,2.145038,-1.358779,0.1526718
0.1704102,1.00415,-0.08862305,0.3740458,-0.8091603,-3.167939
0.09863281,0.9665527,-0.1359863,-0.5648855,-0.778626,-2.59542
0.0612793,0.9555664,-0.1589355,-1.282443,-1.320611,0.4122138
0.06738281,0.9780273,-0.1386719,-0.8473283,-0.5343512,1.946565
0.1013184,0.9880371,-0.1169434,-1.206107,-0.5419847,1.694656
0.1235352,0.9799805,-0.1020508,-0.2290076,-0.9923664,-0.09923664
0.1086426,0.9702148,-0.1254883,-0.4732824,-0.7099237,-0.8625955
0.09082031,0.9680176,-0.135498,-0.5343512,-0.6946565,-0.1068702
0.07788086,0.9812012,-0.1369629,-0.4427481,-0.3282443,0.9389313
0.0925293,0.9814453,-0.1193848,-0.9312977,-0.6793893,0.961832
0.1137695,0.9770508,-0.1118164,-0.6641222,-0.3587786,0.3969466
0.112793,0.9689941,-0.1333008,0.0,-0.6259542,-0.3587786
-eTwist-,-e-,-e-,-e-,-e-,-e-
-sTwist-,-s-,-s-,-s-,-s-,-s-
0.08984375,0.9780273,-0.121582,-0.4885496,-0.8167939,0.3129771
0.09472656,0.9633789,-0.1616211,-2.465649,-0.0610687,-0.1984733
0.1916504,0.9968262,-0.1928711,-0.8778625,-13.42748,-2.381679
-0.2741699,1.007813,-0.04296875,-7.938931,-184.5878,24.80153
0.02294922,0.9575195,-0.05322266,-10.77099,-73.42748,27.49618
0.2976074,0.7741699,-0.4824219,-19.91603,-78.30534,11.46565
0.5,1.0979,-0.07763672,-7.198473,-198.8855,-7.648855
0.4685059,0.9287109,-0.09130859,-13.32824,-248.6794,-29.29008
0.1218262,0.9650879,-0.1472168,-17.05343,-248.1832,-23.89313
-0.2443848,1.021729,0.006103516,-11.34351,-115.771,-25.33588
-0.1135254,0.8759766,-0.1931152,-9.122137,-98.24428,10.41221
0.190918,1.028564,-0.01293945,-4.519084,-154.9618,3.496183
0.8815918,0.9702148,0.0246582,-4.435114,-248.1832,-43.59542
-0.2585449,0.9155273,-0.1120605,-17.38931,-225.3435,-37.31298
-1.441162,1.013428,0.5759277,-12.07634,210.0305,75.06107
0.2702637,0.6860352,-0.3444824,16.72519,188.9695,73.25954
0.7172852,1.225342,-0.0078125,26.98473,124.5115,34.70992
-0.2375488,1.052734,0.3029785,-12.48092,250.1298,20.03817
0.451416,0.5532227,-0.7651367,5.320611,189.4198,6.137404
-0.192627,1.176758,0.1870117,38.90076,243.5954,18.64122
-0.2434082,1.125977,0.07641602,29.64122,250.1298,15.25954
1.218262,0.8937988,-0.2453613,11.28244,169.7634,-27.61069
-0.279541,1.136475,-0.08056641,15.38931,250.1298,18.70992
0.1809082,0.638916,-0.1721191,1.816794,250.1298,-28.09924
0.3286133,0.9475098,-0.3842773,25.91603,244.8015,-15.0458
0.423584,1.112305,0.125,15.22137,128.5954,-25.65649
-0.1816406,0.8525391,-0.3054199,-13.55725,105.3664,-3.450382
0.04443359,1.038818,-0.2155762,9.366412,13.77863,-1.183206
-0.1887207,0.9836426,-0.07250977,-2.480916,-0.8625955,22.16794
0.1479492,0.9614258,-0.1289063,-4.664122,-1.854962,15.76336
0.2329102,0.9262695,-0.1416016,-1.099237,-2.40458,5.19084
0.222168,0.9694824,-0.1125488,-0.1221374,-1.656489,-1.29771
0.175293,0.9768066,-0.1306152,0.5877862,-0.2290076,-5.679389
0.0769043,0.9824219,-0.1228027,0.3969466,-0.3129771,-4.244275
0.03808594,0.9790039,-0.128418,2.618321,1.015267,-0.8549618
0.03759766,0.980957,-0.1206055,-1.015267,-0.9007633,2.022901
0.08227539,0.9614258,-0.09912109,-1.328244,-0.6564885,2.396947
0.1323242,0.9719238,-0.1340332,-0.3358779,-0.8015267,0.5877862
0.1281738,0.9648438,-0.1318359,0.01526718,-0.7862596,-1.076336
0.09716797,0.9775391,-0.128418,-0.9160305,-0.5572519,-0.5801527
0.08105469,0.9814453,-0.1245117,-1.007634,-0.610687,0.5572519
0.09960938,0.9768066,-0.1191406,-0.740458,-0.6030535,1.053435
0.1210938,0.9743652,-0.1201172,-0.4122138,-0.7022901,0.480916
-eTwist-,-e-,-e-,-e-,-e-,-e-
-sTwist-,-s-,-s-,-s-,-s-,-s-
0.09448242,0.9807129,-0.1157227,-0.5572519,-0.6335878,0.2061069
0.1071777,1.02002,-0.1345215,-0.870229,-0.5648855,0.2213741
0.2121582,0.9345703,-0.1787109,-2.877863,-18.63359,-3.40458
0.6870117,0.9968262,-0.1501465,-4.465649,-154.1221,-23.05343
0.1577148,0.9301758,-0.2209473,-16.42748,-248.1832,-20.45802
-0.1123047,0.970459,-0.02685547,-17.0687,-248.1832,-14.01527
-0.3337402,1.046143,0.04614258,-12.70229,-190.8092,0.0
-0.1113281,0.8659668,-0.1945801,-12.49618,-172.5114,25.74809
0.1689453,0.9758301,-0.2370605,-10.35878,-144.4809,34.13741
0.2858887,1.050781,-0.1459961,-15.39695,-152.3435,5.137404
0.2387695,0.9750977,-0.1210938,-13.16794,-170.3512,-10.27481
0.1850586,0.939209,-0.1159668,-12.81679,-165.4962,-12.36641
0.1066895,1.013428,-0.08300781,-9.015267,-167.771,-11.64886
0.04589844,0.9919434,-0.06542969,-1.664122,-57.0229,-59.84733
-1.183594,1.010254,0.2375488,17.52672,144.1298,87.41222
0.1425781,0.9067383,-0.03515625,-7.152672,250.1298,19.0229
0.3288574,0.6608887,-0.3920898,17.77863,176.1832,-4.847328
-0.2084961,1.287109,-0.002929688,25.05343,250.1298,44.40458
1.319336,0.7731934,-0.1777344,10.54198,250.1298,-45.50382
-0.03198242,0.9758301,-0.1296387,35.84733,217.7786,59.01527
0.08520508,1.197754,0.3239746,30.54198,250.1298,-2.801527
0.1523438,0.7524414,-0.3273926,7.854962,220.2595,-19.03053
-0.1933594,0.9404297,-0.1804199,23.96947,215.6107,26.32825
0.3569336,0.923584,-0.1586914,9.740458,250.1298,-42.90076
-0.1066895,1.019531,-0.06591797,22.64122,197.7099,50.83206
1.463379,1.141113,0.01171875,0.5038168,149.1756,0.4351145
0.1933594,0.8474121,-0.3833008,-10.32061,77.05344,1.847328
0.1308594,1.069092,-0.1020508,8.335877,12.85496,1.045802
0.1550293,0.9880371,-0.1108398,1.091603,0.03816794,-3.030534
0.1074219,0.9633789,-0.1633301,-0.9236641,-0.7251908,-2.984733
0.07543945,0.9665527,-0.1262207,-1.549618,-1.152672,-0.7709923
0.06640625,0.9667969,-0.1064453,-1.648855,-0.8854962,1.679389
0.1052246,0.9733887,-0.109375,-0.6564885,-0.8778625,2.19084
0.1262207,0.9782715,-0.1169434,-0.1145038,-0.7557252,0.6564885
0.1350098,0.9760742,-0.1264648,-0.4198473,-0.389313,-0.7480916
0.1105957,0.9780273,-0.1293945,-1.038168,-0.6335878,-0.6641222
0.08837891,0.9741211,-0.1166992,-0.7175572,-0.6870229,0.519084
0.09008789,0.9750977,-0.126709,-0.6641222,-0.4045802,1.236641
0.1115723,0.9760742,-0.1140137,-0.2671756,-0.6641222,0.6793893
0.1125488,0.9729004,-0.1289063,-0.3816794,-0.8167939,0.1145038
0.109375,0.9794922,-0.1123047,-0.3358779,-0.8015267,-0.0610687
0.1057129,0.9785156,-0.1235352,-0.8167939,-0.3816794,0.1832061
0.09301758,0.9694824,-0.1203613,-0.9541985,-0.648855,0.5114504
-eTwist-,-e-,-e-,-e-,-e-,-e-
-sTwist-,-s-,-s-,-s-,-s-,-s-
0.112793,1.041748,-0.05078125,1.183206,-1.503817,1.038168
0.1140137,0.9838867,-0.1088867,-1.755725,-0.6183206,-0.9465649
0.1113281,0.9697266,-0.09130859,-1.160305,-0.9007633,0.351145
0.2255859,0.9333496,-0.2294922,-2.80916,-23.91603,-5.862596
0.6306152,0.9433594,-0.2541504,-11.51145,-157.7557,-21.79389
0.1257324,0.9697266,-0.1831055,-15.61069,-248.1832,-21.44275
-0.1413574,0.9619141,-0.1027832,-20.35114,-248.1832,-26.41985
-0.3591309,0.9714355,0.05029297,-5.78626,-178.4657,3.305344
0.009033203,0.9536133,-0.263916,-8.702291,-148.2595,31.35114
0.2202148,0.9208984,-0.2526855,-10.33588,-157.8321,39.25191
0.892334,1.032959,0.01074219,-7.541985,-176.313,-5.580153
0.3193359,0.9475098,-0.1647949,-17.67939,-201.0382,-11.53435
0.1677246,0.9824219,-0.1162109,-13.60305,-166.7481,-26.70992
-0.4165039,1.132324,0.1889648,-6.51145,233.7176,22.25954
0.2905273,0.8769531,-0.06713867,24.71756,144.9389,76.70229
0.2578125,1.313477,0.4558105,35.53435,213.5343,41.24427
0.5939941,0.7497559,-0.3327637,14.8855,250.1298,-19.24427
0.3442383,0.7976074,-0.5834961,21.48855,175.626,-17.49618
-0.2648926,1.126221,-0.1584473,11.41221,250.1298,22.20611
0.5144043,1.030762,-0.1298828,22.21374,250.1298,-6.78626
-0.05004883,0.8837891,-0.2021484,7.969466,200.0,0.6259542
-0.2492676,0.9621582,-0.004638672,21.24427,250.1298,0.480916
0.2668457,0.6772461,-0.3564453,13.61069,235.6641,-28.93893
-0.01464844,1.139893,-0.1113281,22.9542,229.4198,17.12214
0.3625488,1.11084,-0.04150391,15.17557,98.771,-8.480916
-0.01391602,0.8359375,-0.229248,1.70229,69.86259,-9.045801
0.1437988,0.8701172,-0.3066406,0.3129771,22.62595,-16.22901
0.04418945,0.9973145,-0.0793457,-2.603053,4.984733,-13.00763
-0.01586914,0.9892578,-0.06054688,-4.167939,-1.374046,0.9083969
-0.001220703,0.9833984,-0.05493164,3.045802,0.6793893,5.80916
0.1201172,0.9743652,-0.1223145,2.908397,-1.717557,5.824428
0.159668,0.9477539,-0.1931152,-2.045802,-0.1526718,1.900763
0.1699219,0.9763184,-0.1420898,-2.099237,-0.3664122,-1.442748
0.128418,0.9851074,-0.08032227,-1.251908,-0.8167939,-2.137405
0.07348633,0.9765625,-0.09155273,0.351145,-0.5648855,0.07633588
0.07421875,0.9562988,-0.1494141,-0.7862596,-0.8854962,2.053435
0.1247559,0.9812012,-0.135498,-0.5419847,-0.778626,1.251908
0.1311035,0.9770508,-0.1062012,-1.549618,-0.7480916,-0.06870229
0.1308594,0.9763184,-0.09472656,-0.5267176,-0.648855,-0.832061
0.09960938,0.9812012,-0.1181641,0.2977099,-0.7175572,-0.2213741
0.09472656,0.9748535,-0.1247559,-0.480916,-0.610687,0.8015267
0.1049805,0.9748535,-0.1367188,-1.183206,-0.4885496,0.8549618
0.1264648,0.9750977,-0.1213379,-1.335878,-0.2977099,0.4274809
-eTwist-,-e-,-e-,-e-,-e-,-e-
-sTwist-,-s-,-s-,-s-,-s-,-s-
0.1098633,0.9775391,-0.1081543,0.1450382,-0.2824428,0.6564885
0.1159668,1.0,-0.04394531,1.671756,-2.442748,1.305344
0.1682129,0.9875488,-0.1262207,-2.770992,-30.20611,-6.038168
0.5876465,0.9724121,-0.1582031,-9.022901,-227.7863,-22.29008
0.1882324,0.9680176,-0.1096191,-20.62595,-248.1832,-44.14504
-0.2219238,1.068359,0.1801758,-2.091603,-248.1832,-1.312977
-0.2260742,0.9824219,0.04956055,-7.312977,-194.9466,19.20611
0.170166,0.9553223,-0.1013184,-18.60305,-248.1832,-14.34351
-0.1896973,0.9401855,-0.08447266,-21.74046,-168.9542,-11.9771
-0.0480957,0.9006348,-0.1757813,-10.87023,-137.2443,15.39695
0.2746582,1.01416,-0.1105957,-9.122137,-149.855,-5.770992
0.1508789,0.9060059,-0.1088867,-13.58779,-238.5191,-15.51908
0.1269531,0.9736328,-0.08007813,-12.17557,-248.1832,-16.93893
-0.1376953,1.0271,-0.1750488,-14.63359,71.29008,-142.5802
-0.3344727,1.108887,-0.1179199,21.09924,123.3359,135.8626
0.2075195,1.117676,0.3461914,1.366412,249.6947,53.83969
0.9499512,0.5236816,-0.5288086,6.984733,205.2443,-6.526718
-0.09179688,1.147705,0.1655273,55.1145,186.0153,90.03053
-0.1936035,1.031494,0.2492676,22.13741,250.1298,12.41985
1.0354,0.7348633,-0.4584961,11.56489,180.626,-21.0916
-0.3825684,1.102051,0.01171875,27.52672,250.1298,14.07634
0.2822266,0.7661133,-0.6025391,8.167939,250.1298,-64.08397
-0.03515625,0.9375,-0.239502,26.59542,225.458,8.374045
0.1035156,1.218506,0.08618164,18.15267,250.1298,-9.068703
0.3710938,0.7983398,-0.1542969,1.78626,165.1603,-36.60305
0.2910156,1.112793,-0.1379395,12.17557,99.29771,-1.679389
0.265625,1.019775,-0.08227539,8.778625,23.44275,-16.93893
-0.05883789,0.9731445,-0.2541504,-6.610687,-4.137404,-4.801527
-0.07080078,0.9741211,-0.1699219,-6.053435,-4.045802,4.427481
0.07397461,0.9765625,-0.05224609,-3.778626,-5.946565,4.51145
0.09790039,0.9851074,-0.03222656,-0.5648855,-0.7480916,4.045802
0.1662598,0.9707031,-0.1086426,3.137405,-1.122137,0.7099237
0.1555176,0.9758301,-0.1386719,0.7328244,-1.137405,-1.358779
0.1137695,0.9611816,-0.1706543,-3.0,-0.9312977,-1.21374
0.08642578,0.9802246,-0.09814453,-2.251908,-0.3969466,0.3358779
0.09936523,0.9853516,-0.07397461,-0.4122138,-0.8778625,1.045802
0.1166992,0.9787598,-0.109375,1.19084,-1.007634,1.129771
0.1274414,0.9682617,-0.1533203,0.2213741,-0.9847328,0.351145
0.1271973,0.9748535,-0.1374512,-1.442748,-0.8091603,-0.2824428
0.1052246,0.9785156,-0.1162109,-1.78626,-0.7099237,-0.09923664
0.1005859,0.9736328,-0.09887695,-0.6641222,-0.5038168,0.2366412
0.1098633,0.9667969,-0.1298828,0.5343512,-0.7099237,0.3740458
0.1113281,0.9709473,-0.1535645,-0.389313,-0.5877862,0.1832061
-eTwist-,-e-,-e-,-e-,-e-,-e-
-sTwist-,-s-,-s-,-s-,-s-,-s-
0.1047363,0.9765625,-0.1105957,-0.4503817,-0.648855,0.2824428
0.1225586,1.019531,-0.05786133,1.961832,-1.969466,0.9007633
0.1289063,0.9736328,-0.1291504,-2.053435,-1.732824,-1.167939
0.1706543,0.9992676,-0.1252441,-1.282443,-21.09924,-3.732824
0.6738281,0.9938965,-0.1276855,-7.610687,-149.1527,-20.28244
0.2590332,0.9880371,-0.1242676,-18.82443,-248.1832,-21.54962
0.0871582,0.9694824,-0.09472656,-19.25191,-248.1832,-43.60305
-0.2397461,1.064941,0.09326172,-2.358779,-248.1832,18.35114
-0.1645508,0.9089355,0.05126953,-3.70229,-153.6641,24.13741
0.138916,0.7739258,-0.2902832,-10.03053,-132.4351,19.0
0.2575684,1.025635,-0.185791,-8.633588,-167.4504,27.57252
0.392334,1.015137,-0.1533203,-17.45038,-190.5573,-8.396947
0.2980957,0.9477539,-0.1518555,-15.55725,-233.1069,-16.25954
0.1062012,0.9919434,-0.1501465,-9.832061,-112.1832,-87.45802
-0.003417969,0.9094238,0.161377,19.41221,111.6794,111.1908
0.6789551,0.8566895,-0.09106445,37.03817,141.084,11.33588
-0.1630859,1.143066,0.2485352,34.0687,211.458,78.55725
0.08178711,0.7565918,-0.2712402,13.15267,244.0229,-37.45038
0.06933594,0.7619629,-0.3803711,12.60305,182.2519,41.87786
-0.1896973,1.167725,0.2307129,32.40458,250.1298,9.847328
0.2878418,0.6550293,-0.4875488,-4.793893,188.313,-8.175572
-0.2219238,1.068359,0.08398438,20.36641,241.1527,39.60305
0.8244629,0.9533691,-0.0390625,12.82443,250.1298,-23.92366
0.04418945,0.847168,-0.222168,28.42748,218.9084,6.633588
0.6628418,1.013672,-0.2434082,22.10687,64.07633,-18.14504
-0.08227539,0.9350586,-0.2905273,-4.610687,35.01527,0.04580153
0.145752,0.9003906,-0.2902832,-7.519084,-17.16794,-6.091603
-0.09887695,1.046143,0.04370117,-7.519084,-6.091603,6.442748
0.09643555,0.9597168,-0.01513672,-1.396947,-3.832061,5.961832
0.1245117,0.9885254,-0.08398438,6.412214,-1.419847,6.587786
0.1723633,0.9692383,-0.190918,1.648855,-1.145038,3.167939
0.1525879,0.9533691,-0.1958008,-3.435115,-0.8167939,0.7633588
0.1159668,0.9719238,-0.161377,0.6641222,-0.8167939,1.496183
0.1328125,0.96875,-0.1757813,-2.900763,-0.6870229,0.3740458
0.1279297,0.9831543,-0.09985352,-3.183206,-0.870229,-0.4351145
0.1152344,0.9858398,-0.06616211,0.1450382,-0.8931297,-0.5954198
0.111084,0.9816895,-0.1030273,1.687023,-0.8778625,0.1145038
0.1052246,0.9675293,-0.1540527,0.3358779,-0.5725191,0.740458
0.1184082,0.9672852,-0.1540527,-2.549618,-0.7633588,0.9694656
0.1257324,0.9763184,-0.1032715,-1.839695,-0.4732824,-0.1526718
0.1191406,0.9709473,-0.08862305,-0.05343511,-0.2900764,-0.0610687
0.1188965,0.9768066,-0.1188965,0.1450382,-0.6641222,0.1221374
0.1135254,0.9685059,-0.1298828,-0.5877862,-0.5801527,0.4351145
-eTwist-,-e-,-e-,-e-,-e-,-e-
-sTwist-,-s-,-s-,-s-,-s-,-s-
0.1315918,0.9699707,-0.1379395,-0.9541985,-1.175573,0.2061069
0.1369629,0.9624023,-0.1081543,0.351145,-1.656489,0.8244275
0.1313477,1.030029,-0.05541992,0.5725191,-2.48855,0.9007633
0.4633789,0.9462891,-0.1987305,-2.824427,-115.6641,-19.14504
0.4140625,0.9833984,-0.1079102,-17.69466,-248.1832,-35.12214
-0.2463379,0.9384766,-0.109375,-28.25954,-158.4198,-65.50381
-0.03515625,0.8391113,-0.3044434,-11.47328,-248.1832,-7.664122
-0.02539063,1.21582,0.07958984,-6.053435,-140.8397,-33.51145
-0.03588867,0.9125977,-0.1799316,-15.35878,-168.9237,15.98473
0.1843262,1.095703,0.05908203,10.74809,-206.084,11.62595
0.2390137,0.9038086,-0.2414551,-20.74046,-241.9924,-6.076336
0.1225586,0.9511719,-0.2092285,-14.65649,-248.1832,-12.49618
-0.232666,1.064697,0.0480957,-12.0229,-189.2214,16.50382
0.1533203,0.9743652,-0.03393555,-15.48092,-138.4809,9.458015
-0.2995605,0.9326172,-0.06079102,-18.12214,137.687,-31.17557
-0.314209,0.9016113,0.0612793,26.16031,130.7176,74.51145
0.1479492,1.218262,0.3210449,16.38168,208.6947,64.24428
1.550537,0.9030762,-0.3029785,10.19084,220.8244,-12.63359
0.04150391,0.8740234,-0.2763672,34.07634,214.8321,14.0687
0.03735352,1.100586,-0.08300781,22.12977,250.1298,-5.091603
0.1760254,0.8435059,-0.1398926,13.09924,194.4504,-20.48855
-0.2836914,1.172363,0.2255859,17.70992,218.9771,40.73283
0.2905273,0.9418945,-0.08007813,8.061069,250.1298,-4.687023
0.331543,0.8933105,-0.2370605,30.0229,214.0763,-10.93893
0.1010742,0.9003906,-0.3466797,20.45802,168.8702,-5.946565
0.2700195,0.994873,-0.2873535,7.007634,73.24428,-4.259542
0.06567383,0.965332,-0.1901855,-4.625954,15.42748,-0.5801527
0.01708984,0.9187012,-0.1516113,-13.61069,1.099237,7.549618
0.09082031,1.022461,0.06713867,1.312977,-3.938931,10.36641
0.1398926,0.9780273,-0.005615234,5.175572,-1.389313,8.877863
0.1645508,0.954834,-0.1928711,5.70229,-0.519084,8.183207
0.1879883,0.9504395,-0.2609863,-2.587786,-1.603053,4.335878
0.1606445,0.9807129,-0.1601563,-6.221374,-0.1755725,2.19084
0.1687012,0.9858398,-0.02832031,-4.251908,-0.8778625,-0.06870229
0.130127,0.9782715,-0.02294922,1.603053,-1.282443,-0.2977099
0.1152344,0.9775391,-0.1086426,5.053435,-1.435114,0.2137404
0.1274414,0.9602051,-0.2097168,0.7328244,-0.8244275,0.6641222
0.1159668,0.9655762,-0.1740723,-3.961832,-0.5801527,0.9923664
0.1428223,0.9794922,-0.05981445,-2.954198,-0.9770992,0.2671756
0.1396484,0.980957,-0.06201172,1.351145,-0.9389313,-0.05343511
0.123291,0.9675293,-0.1169434,2.19084,-0.8625955,0.1908397
0.135498,0.9658203,-0.170166,-0.7709923,-0.7328244,0.3587786
0.126709,0.9733887,-0.144043,-2.946565,-0.3587786,0.4656488
-eTwist-,-e-,-e-,-e-,-e-,-e-
-sTwist-,-s-,-s-,-s-,-s-,-s-
0.1218262,0.9667969,-0.1140137,-0.7938931,-0.5648855,0.4732824
0.1257324,0.9521484,-0.1621094,-2.89313,0.1374046,-0.1603053
0.1008301,0.9372559,-0.1567383,-3.206107,0.2213741,0.3053435
0.1040039,0.9289551,-0.138916,-3.450382,-27.89313,1.526718
0.5683594,0.9289551,-0.269043,-9.244275,-177.3053,-21.54198
0.3244629,1.007813,-0.09204102,-15.89313,-248.1832,-38.9084
-0.3059082,1.124023,-0.02368164,-28.21374,-144.4809,-7.251908
0.28125,0.6293945,-0.3703613,-20.26718,-248.1832,-38.52672
0.07275391,1.209717,-0.002685547,-12.58015,-200.1832,-35.26717
-0.161377,1.134277,0.1228027,-6.305344,-162.8168,12.56489
0.3129883,0.8696289,-0.1437988,-9.564885,-216.6794,3.396947
-0.0009765625,0.9509277,-0.07714844,-17.46565,-136.4122,23.75573
0.3098145,0.8984375,-0.1501465,-15.91603,-157.5114,-3.083969
0.1135254,0.9428711,-0.1101074,-10.03053,-195.0153,-20.80153
-0.833252,1.237549,0.7106934,10.09924,109.8321,89.29008
0.07763672,0.7431641,0.1552734,4.328244,250.1298,42.75573
0.2929688,0.5407715,-0.3635254,39.58015,133.9237,15.24428
-0.1643066,1.257324,0.3569336,48.45802,190.8931,74.74046
0.4443359,0.8969727,-0.2631836,6.29771,250.1298,-23.24427
0.1987305,0.7307129,-0.4802246,9.610687,187.2366,7.572519
-0.1643066,1.070801,0.1491699,22.00763,250.1298,6.19084
0.244873,0.9904785,-0.2058105,9.022901,192.9924,-2.625954
-0.1645508,0.9892578,0.1237793,19.94657,205.5573,49.75573
-0.04467773,0.8457031,-0.01196289,24.87786,250.1298,-25.12214
0.01513672,0.8413086,-0.2033691,29.35114,207.9618,13.0
0.9638672,1.098877,-0.1652832,21.94657,80.93893,-14.37405
0.009521484,0.9665527,-0.2871094,-6.435114,33.65649,-3.320611
0.1772461,0.9523926,-0.2058105,-8.114504,-10.92366,0.3435115
0.04125977,1.032715,0.07568359,-0.5877862,-0.3053435,8.511451
0.1296387,0.9921875,0.02856445,5.305344,-0.2977099,8.21374
0.1533203,0.9345703,-0.2316895,2.267176,0.0,4.80916
0.1669922,0.9645996,-0.2060547,-5.465649,-0.01526718,2.137405
0.1696777,0.9594727,-0.1113281,-6.564886,-0.1984733,-0.1832061
0.1481934,0.9887695,-0.0222168,-0.2061069,-1.129771,-0.7022901
0.1191406,0.9875488,-0.05908203,3.541985,-1.175573,0.2442748
0.107666,0.9572754,-0.159668,2.396947,-0.6946565,1.229008
0.1352539,0.9655762,-0.1967773,-1.954198,-0.5648855,1.076336
0.1374512,0.972168,-0.1184082,-3.870229,-0.4427481,0.2137404
0.1369629,0.9846191,-0.06079102,-1.145038,-0.519084,-0.129771
0.1123047,0.9753418,-0.08886719,1.755725,-0.5572519,0.05343511
0.137207,0.9631348,-0.1560059,0.8396947,-1.389313,0.6335878
0.1376953,0.9665527,-0.1635742,-1.763359,-1.007634,0.3435115
0.1279297,0.9733887,-0.1264648,-2.061069,-0.4656488,0.1908397
-eTwist-,-e-,-e-,-e-,-e-,-e-
-sTwist-,-s-,-s-,-s-,-s-,-s-
0.1252441,0.9753418,-0.1022949,-0.4732824,-0.7633588,0.4656488
0.1384277,0.9824219,-0.1286621,0.9160305,1.045802,-0.3282443
0.1540527,1.007324,-0.123291,1.671756,-2.564885,1.381679
0.3283691,1.036621,-0.1044922,4.366412,-58.67939,-12.22137
0.420166,0.9140625,-0.3195801,-18.0916,-195.2519,-24.05343
0.3405762,0.970459,-0.1791992,-23.50382,-248.1832,-52.15267
-0.1796875,1.19873,0.08959961,-21.20611,-233.8015,19.27481
0.2983398,0.7451172,-0.1525879,-28.51145,-236.4962,-28.54198
-0.06835938,0.9160156,-0.1914063,-17.56489,-185.0382,-12.70229
-0.04321289,1.094971,-0.07739258,-7.412214,-106.0992,-9.587787
0.2561035,0.7866211,-0.2290039,-3.290076,-185.7557,3.305344
0.2197266,1.043457,-0.2502441,-10.67176,-247.0,-10.0687
0.1149902,0.9631348,-0.1420898,-18.23664,-248.1832,-16.21374
-0.3127441,1.034668,-0.2192383,-23.35878,111.1069,-141.458
0.135498,1.082764,0.1708984,1.847328,136.4886,114.3817
0.3552246,1.031494,0.1591797,2.122137,200.7176,52.51908
0.7272949,0.8586426,-0.2087402,15.81679,200.2901,13.12214
0.1184082,1.127441,0.08203125,37.31298,224.9466,7.671756
0.8120117,0.8867188,-0.4013672,24.32825,250.1298,-48.42748
0.3474121,0.7438965,-0.7011719,4.419847,212.2366,-62.20611
-0.05786133,1.280762,-0.02148438,26.8855,174.9695,14.62595
0.04125977,1.066406,0.06884766,7.587786,242.1679,-4.244275
-0.01977539,0.8071289,-0.1455078,11.94656,190.2824,17.83206
-0.1669922,1.007813,-0.109375,14.01527,237.3435,17.29008
0.2602539,0.7661133,-0.4294434,5.175572,163.1298,3.160305
0.3737793,1.046143,-0.1206055,16.0687,55.77099,0.1908397
0.2226563,1.10376,-0.02758789,2.114504,-2.030534,2.564885
-0.009277344,0.8811035,-0.192627,-15.1374,3.328244,11.36641
0.1235352,0.9458008,-0.06420898,1.679389,-1.145038,9.709924
0.1376953,1.016113,0.0002441406,3.717557,-4.015267,9.038168
0.1218262,0.9501953,-0.1560059,1.152672,-0.7557252,9.053435
0.1533203,0.9370117,-0.2055664,-1.061069,-0.7862596,7.778626
0.1716309,0.9724121,-0.154541,-3.351145,-0.6946565,4.778626
0.2106934,0.9650879,-0.07495117,-3.610687,-1.328244,1.251908
0.1928711,0.9675293,-0.06396484,0.1908397,-0.9312977,-1.358779
0.1408691,0.9724121,-0.1054688,2.221374,-1.603053,-1.251908
0.1535645,0.9741211,-0.07080078,-0.5343512,-0.5572519,0.06870229
0.1342773,0.9743652,-0.09204102,0.8396947,-0.2213741,0.3969466
0.1279297,0.9714355,-0.1398926,-1.725191,-0.8778625,0.7022901
0.1306152,0.9724121,-0.1157227,-2.633588,-0.7938931,0.7862596
0.1464844,0.9763184,-0.06958008,-0.7709923,-0.7709923,0.3664122
0.1433105,0.9716797,-0.078125,1.221374,-1.038168,0.2442748
0.1298828,0.9692383,-0.1337891,0.9007633,-0.6412213,0.2213741
-eTwist-,-e-,-e-,-e-,-e-,-e-
-sTwist-,-s-,-s-,-s-,-s-,-s-
0.1411133,0.9682617,-0.1035156,-0.519084,-0.3435115,0.2824428
0.1479492,1.047119,-0.003417969,3.328244,-2.717557,0.9923664
0.1201172,0.9707031,-0.1376953,-2.572519,-1.114504,-2.167939
0.5656738,1.006592,-0.1853027,-4.419847,-95.12977,-15.65649
0.5048828,0.907959,-0.1853027,-20.83206,-248.1832,-33.20611
-0.1813965,0.888916,-0.1171875,-21.71756,-200.229,-27.52672
-0.1958008,0.8100586,-0.2314453,-21.19084,-208.8473,13.93893
1.069824,1.131592,0.08935547,-11.87023,-248.1832,-32.87786
-0.1455078,0.9873047,-0.0546875,-26.26718,-158.2977,-29.83206
0.114502,0.8898926,-0.1791992,-11.46565,-197.374,12.79389
0.4067383,1.0625,-0.1564941,-9.625955,-246.3359,-15.27481
0.1296387,0.958252,-0.2145996,-23.50382,-248.1832,-16.92366
-0.2138672,0.9428711,-0.1074219,-12.16794,-210.4504,-13.98473
0.06323242,0.8806152,-0.2995605,-20.91603,-170.9695,-3.145038
0.08129883,1.054688,-0.2116699,-12.29008,-15.32824,-28.61832
-0.6962891,1.053955,0.3012695,5.08397,108.2214,74.30534
0.2324219,0.8222656,-0.2109375,-5.38168,250.1298,0.4580153
0.28125,0.7595215,-0.1140137,34.38931,124.9771,54.0687
-0.145752,1.335205,0.3293457,38.69466,241.6794,47.76336
1.581543,0.6364746,-0.5776367,5.687023,187.0305,-35.61069
-0.1569824,0.9555664,0.01953125,39.50382,192.8779,46.80153
0.7341309,1.041016,-0.0546875,9.427481,250.1298,-17.87786
0.1716309,0.6481934,-0.4052734,3.473282,202.5573,-12.9542
-0.1306152,1.130859,0.09741211,26.53435,240.0687,14.90076
0.5009766,1.084717,-0.2661133,11.83206,132.2137,-5.610687
0.05029297,0.9350586,-0.2272949,6.267176,71.67175,-6.625954
0.1601563,1.009277,-0.232666,3.19084,-3.679389,2.564885
-0.05615234,1.012207,-0.05712891,-6.557252,-1.290076,10.65649
0.1252441,0.939209,-0.06420898,-5.366412,-1.290076,10.82443
0.1323242,0.9824219,-0.06811523,2.038168,-1.732824,9.931297
0.1333008,0.9914551,-0.1218262,2.793893,-1.19084,8.274809
0.1750488,0.9638672,-0.1647949,-1.358779,-2.343511,5.725191
0.1647949,0.9650879,-0.1540527,-3.129771,-0.8167939,2.816794
0.1674805,0.9770508,-0.08374023,-1.648855,-0.2366412,0.4274809
0.1494141,0.9672852,-0.08276367,-0.4885496,-1.19084,-0.8625955
0.112793,0.9755859,-0.1147461,1.114504,-0.5572519,-0.3129771
0.09838867,0.984375,-0.1350098,0.1832061,0.03816794,0.9465649
0.1184082,0.9631348,-0.1293945,-1.541985,-0.07633588,1.366412
0.1386719,0.9672852,-0.1181641,-1.59542,-0.778626,0.4274809
0.140625,0.9787598,-0.09838867,0.08396947,-0.740458,-0.3587786
0.1347656,0.9694824,-0.1274414,-0.7251908,-0.778626,0.03816794
0.1132813,0.958252,-0.1367188,-1.290076,-0.3129771,0.4274809
0.1381836,0.9741211,-0.111084,-0.8015267,-1.274809,0.8167939
-eTwist-,-e-,-e-,-e-,-e-,-e-
-sTwist-,-s-,-s-,-s-,-s-,-s-
0.1472168,0.9665527,-0.1184082,-0.4885496,-0.5877862,0.1145038
0.1259766,1.008545,-0.07983398,0.4503817,-1.236641,0.09923664
0.1279297,0.9638672,-0.09814453,-1.885496,-2.549618,0.07633588
0.3410645,1.011963,-0.1518555,-3.679389,-74.16031,-10.27481
0.4233398,0.927002,-0.2780762,-21.90076,-222.7328,-24.35114
0.298584,0.8967285,-0.1213379,-20.46565,-246.0763,-47.65649
-0.2871094,1.068115,0.2368164,-17.36641,-224.229,18.60305
0.3203125,0.8125,-0.3208008,-31.15267,-248.1832,-32.56488
-0.1818848,0.9729004,-0.142334,-19.0916,-204.5191,-25.29008
-0.1281738,1.005615,0.02514648,0.5038168,-171.3206,13.00763
0.3217773,0.9389648,-0.2216797,-6.641222,-229.3053,0.6564885
0.2028809,0.8725586,-0.2421875,-16.15267,-248.1832,-8.0
0.2023926,1.011963,-0.1555176,-13.39695,-248.1832,-18.30534
-0.3666992,1.208496,-0.1157227,-16.05343,107.4275,-38.60305
-0.015625,0.8618164,0.09521484,-0.2900764,96.82442,90.17558
0.114502,1.115479,0.1875,1.496183,222.9542,64.56489
0.3000488,0.7873535,-0.6403809,-0.1984733,250.1298,-59.96947
-0.004150391,0.9880371,-0.3193359,18.37405,204.0611,-7.374046
-0.015625,1.295654,-0.03051758,12.94656,250.1298,-8.114504
0.03515625,0.8671875,-0.015625,11.21374,152.5649,-14.9542
-0.2578125,1.093994,0.03808594,21.74046,185.3664,37.34351
0.1733398,0.8603516,-0.1518555,6.320611,241.1603,-5.977099
0.0004882813,0.9179688,-0.171875,16.61832,185.0382,41.12214
0.1369629,1.167236,0.03442383,18.03817,206.1756,39.96183
0.1655273,0.7683105,-0.06079102,9.923664,129.2748,14.06107
0.7587891,0.979248,-0.3635254,6.732824,11.12214,-3.519084
0.1113281,1.053467,-0.05810547,-0.7099237,-4.091603,-2.541985
0.001464844,0.9477539,-0.06494141,-4.328244,0.3969466,2.519084
0.1130371,0.9492188,-0.1184082,0.07633588,-0.870229,2.496183
0.2150879,0.9775391,-0.08740234,2.648855,-1.977099,-0.778626
0.2092285,0.973877,-0.1206055,2.160305,-5.122138,-3.526718
0.1616211,0.9631348,-0.1503906,-1.045802,-5.70229,-2.030534
0.07446289,0.9770508,-0.1315918,-2.251908,-2.541985,1.465649
0.1313477,0.9973145,-0.07910156,-1.160305,-0.4045802,1.931298
0.1916504,0.9631348,-0.08325195,-0.7938931,-0.9389313,-0.610687
0.1601563,0.958252,-0.1125488,0.7709923,-0.8167939,-1.045802
0.1047363,0.9804688,-0.1259766,1.038168,-1.015267,0.870229
0.1193848,0.9663086,-0.1311035,-1.900763,-0.5572519,2.068702
0.1687012,0.9692383,-0.1303711,-2.534351,-0.4427481,0.6183206
0.1828613,0.9787598,-0.0871582,-1.633588,-0.3282443,-1.458015
0.1308594,0.9672852,-0.1013184,-0.9389313,-0.3206107,-0.9312977
0.09716797,0.9694824,-0.1013184,0.4732824,-0.9465649,1.389313
0.1159668,0.973877,-0.1179199,0.6030535,-1.091603,2.099237
-eTwist-,-e-,-e-,-e-,-e-,-e-
-sTwist-,-s-,-s-,-s-,-s-,-s-
0.1403809,0.972168,-0.1120605,-0.9694656,-0.6030535,0.4732824
0.1516113,0.9941406,-0.01489258,1.167939,-2.053435,1.503817
0.1286621,1.000977,-0.119873,-1.908397,0.2824428,-1.580153
0.4135742,0.9931641,-0.1647949,-3.954198,-103.0382,-19.72519
0.5603027,0.8723145,-0.3486328,-22.62595,-248.1832,-49.45802
-0.1437988,1.083008,-0.06494141,-23.90076,-241.6794,-6.91603
-0.05615234,1.147949,0.1323242,-18.42748,-248.1832,15.87786
-0.1555176,0.7463379,-0.1162109,-25.43511,-216.5802,-29.39695
-0.09350586,1.02124,-0.1975098,-9.343512,-140.7786,5.671756
0.1884766,1.071533,0.05224609,-2.152672,-202.4275,6.541985
0.3850098,0.8588867,-0.1303711,-20.98473,-248.1832,-19.80153
0.1005859,0.9462891,-0.2121582,-21.19084,-248.1832,-23.35114
-0.1379395,1.038086,-0.03173828,-20.31298,-232.2824,-14.72519
0.04321289,0.885498,-0.1938477,-24.15267,-143.4809,-13.61832
0.06469727,0.980957,-0.2172852,-8.870229,-59.31298,-26.77099
-0.848877,1.133545,0.3840332,8.931297,132.8626,87.69466
0.3562012,0.690918,-0.236084,-3.10687,244.4504,13.45802
0.3452148,0.8464355,-0.2080078,34.21374,142.9389,1.244275
-0.2333984,1.247803,0.1992188,41.8855,250.1298,27.92366
1.999939,0.7866211,-0.541748,5.465649,178.9389,-34.89313
-0.1855469,1.128418,0.02636719,26.35114,171.0916,19.68702
0.07324219,0.9858398,-0.1896973,-0.4732824,250.1298,-6.137404
0.05322266,0.7319336,-0.2163086,6.541985,165.2977,18.92366
-0.2414551,1.143555,-0.02172852,18.03817,211.5496,49.45802
0.296875,0.9050293,-0.06469727,15.61069,111.5115,0.9083969
0.154541,0.753418,-0.4321289,-6.435114,37.91603,12.9542
0.4541016,1.094238,-0.1533203,8.946565,-18.80153,1.145038
0.2641602,1.00293,0.003662109,-9.274809,-7.19084,-2.503817
0.07739258,0.8942871,-0.1210938,-4.908397,1.587786,-2.839695
0.0625,1.000977,-0.0769043,5.061069,0.8244275,2.145038
0.1030273,1.012451,-0.1157227,2.305344,-0.3587786,2.793893
0.199707,0.9492188,-0.1809082,-3.473282,-1.045802,0.7938931
0.1862793,0.9560547,-0.1220703,-3.442748,-0.2290076,-1.984733
0.1201172,0.9863281,-0.04321289,-0.0610687,-1.015267,-0.5572519
0.09228516,0.9758301,-0.07666016,2.19084,-1.679389,2.045802
0.1208496,0.9614258,-0.1462402,1.526718,-1.801527,2.290076
0.173584,0.9650879,-0.1772461,-2.068702,-0.7328244,-0.2824428
0.1713867,0.9655762,-0.1279297,-4.526718,0.7938931,-1.251908
0.1066895,0.9724121,-0.06347656,-2.694656,0.08396947,-0.1603053
0.1037598,0.9782715,-0.05126953,0.4427481,-0.3435115,1.709924
0.1242676,0.9694824,-0.1086426,-0.7557252,-0.480916,0.6946565
0.1342773,0.9716797,-0.1049805,0.1221374,-0.5877862,0.6183206
0.1523438,0.9680176,-0.1188965,0.1908397,-0.7480916,0.05343511
-eTwist-,-e-,-e-,-e-,-e-,-e-
-sTwist-,-s-,-s-,-s-,-s-,-s-
0.1333008,0.9758301,-0.105957,-0.5267176,-0.961832,0.3435115
0.1518555,0.9787598,-0.04125977,1.80916,-2.694656,1.854962
0.6650391,1.002197,-0.1533203,-3.175573,-115.8779,-17.72519
0.4387207,0.9221191,-0.2182617,-18.94657,-248.1832,-31.79389
-0.02880859,0.8608398,-0.3041992,-28.9313,-163.9313,-62.66412
-0.1835938,1.071777,0.02416992,-7.748092,-233.3206,22.36641
0.3046875,1.097656,-0.04199219,-32.32824,-243.1908,-27.47328
0.2541504,0.8452148,-0.1826172,-25.75573,-248.1832,-18.54962
-0.1855469,1.091553,0.0847168,-7.290076,-217.1145,-10.80153
0.09838867,0.9375,-0.2521973,-22.9771,-170.0229,8.137404
0.2258301,0.9057617,-0.1235352,-6.259542,-203.8779,3.396947
0.3129883,1.056396,-0.06958008,-17.29008,-230.8321,-14.38931
0.1230469,0.9592285,-0.1333008,-20.81679,-249.0687,-11.36641
0.07055664,0.9897461,-0.1582031,-11.83206,-94.64886,-85.26717
-1.984375,0.7866211,-0.1442871,-6.389313,119.8015,112.7405
0.229248,0.9973145,0.09887695,-1.022901,250.1298,46.72519
0.6323242,0.7668457,-0.2497559,24.34351,135.3893,-3.946565
-0.1665039,0.9846191,0.1896973,35.74809,239.229,60.56488
0.4291992,0.9873047,-0.3793945,26.80153,248.8473,-69.9771
-0.1333008,0.8657227,-0.253418,36.12214,179.8244,33.57252
0.01538086,1.087402,0.06591797,17.77863,250.1298,-3.977099
0.2246094,0.5778809,-0.5412598,-1.160305,220.6031,-15.9084
-0.1481934,1.233643,0.1293945,20.86259,213.0305,12.50382
0.1064453,0.9912109,-0.07373047,5.572519,250.1298,-17.85496
0.01293945,0.9714355,-0.203125,16.36641,206.4733,22.12977
0.2683105,1.186523,0.06811523,23.70992,83.41222,14.19084
0.2788086,0.980957,-0.2548828,-1.717557,22.15267,5.198473
0.1582031,0.9648438,-0.2792969,-7.740458,-9.671756,9.572519
0.04443359,0.9836426,-0.009521484,-4.816794,-2.465649,14.17557
0.123291,0.9611816,0.001708984,-0.4198473,-3.343511,15.49618
0.1740723,0.939209,-0.1762695,4.59542,-0.6335878,7.358778
0.3271484,0.9577637,-0.2419434,0.1450382,-6.48855,-2.206107
0.2128906,0.9775391,-0.1447754,-5.21374,0.7251908,-5.580153
0.08374023,0.9765625,-0.0546875,-3.664122,-0.3206107,-2.19084
0.02612305,0.9875488,-0.04541016,1.160305,-0.5648855,4.572519
0.1296387,0.9733887,-0.08666992,3.099237,-0.9236641,3.847328
0.2197266,0.9558105,-0.1621094,0.9160305,-0.6335878,-0.6030535
0.1723633,0.9587402,-0.1784668,-2.221374,-0.3587786,-2.21374
0.08422852,0.979248,-0.1137695,-3.557252,-0.9465649,0.2137404
0.09570313,0.9833984,-0.06518555,-2.045802,-0.1908397,2.328244
0.1625977,0.9838867,-0.08691406,0.3969466,-0.4351145,0.519084
0.175293,0.9748535,-0.1235352,-0.2366412,-0.6564885,-0.9007633
0.1240234,0.9589844,-0.1196289,-1.671756,-0.3664122,-0.351145
-eTwist-,-e-,-e-,-e-,-e-,-e-
-sTwist-,-s-,-s-,-s-,-s-,-s-
0.145752,0.9743652,-0.1113281,-0.4580153,-0.778626,0.08396947
0.1174316,1.037598,0.003662109,2.618321,-1.312977,1.122137
0.159668,0.9736328,-0.1577148,-5.08397,-41.99237,-7.152672
0.5048828,0.9379883,-0.2397461,-18.87786,-227.3817,-26.85496
0.2712402,0.9655762,-0.1237793,-23.80153,-223.3817,-73.70229
-0.1228027,1.240967,0.1425781,-10.20611,-227.5496,15.38168
0.2648926,0.9260254,-0.2124023,-30.70229,-232.7405,-28.9771
0.1994629,0.9291992,0.02587891,-19.1145,-248.1832,-14.40458
-0.05175781,1.091553,0.06665039,-16.15267,-243.4122,-23.10687
-0.1098633,0.9414063,-0.05517578,-10.34351,-202.8092,15.20611
0.1411133,0.9748535,-0.04248047,-10.66412,-195.4504,11.57252
0.2385254,0.9277344,-0.05419922,-15.00763,-206.1069,-0.7633588
0.3125,0.953125,-0.08911133,-17.72519,-248.1832,-14.9771
-0.01660156,0.9567871,-0.1000977,-17.9771,-248.1832,-10.85496
-0.5654297,1.169434,0.06347656,-17.58779,189.1298,98.27481
0.2370605,0.7744141,-0.02685547,11.87786,238.2901,38.85496
0.2565918,1.089844,0.2561035,36.35115,146.0611,63.64122
0.09301758,0.970459,0.1188965,18.56489,238.771,42.30534
1.076172,0.8371582,-0.2331543,26.29008,147.7786,-20.87023
-0.246582,1.035889,-0.2504883,32.61832,250.1298,10.09924
0.2438965,1.076904,0.1074219,16.48855,194.7786,-24.50382
-0.1113281,0.9467773,-0.004638672,19.87023,158.1374,44.58779
-0.07910156,1.197266,-0.107666,12.17557,250.1298,23.03053
0.09204102,0.5778809,-0.3671875,8.198473,180.9466,22.22901
-0.09790039,1.166748,-0.07641602,24.05343,192.2595,51.85496
0.4387207,1.079346,-0.08911133,0.09923664,84.0458,4.870229
0.2966309,0.6950684,-0.3256836,-6.274809,21.28244,-3.320611
0.2805176,1.006348,-0.0949707,6.496183,-7.480916,-7.40458
0.0004882813,1.015381,-0.06054688,-1.152672,-2.221374,2.045802
0.08764648,0.9499512,-0.1181641,-0.7557252,-2.374046,4.328244
0.1940918,0.9677734,-0.1237793,0.4351145,-0.1755725,0.6946565
0.2106934,0.9765625,-0.1196289,-0.2213741,-0.02290076,-2.824427
0.1218262,0.9777832,-0.1079102,-1.320611,-0.3740458,-1.282443
0.07983398,0.9658203,-0.09545898,-2.175573,-0.2977099,2.076336
0.1210938,0.9780273,-0.08422852,0.6793893,-0.9007633,2.801527
0.1833496,0.9748535,-0.1032715,0.7938931,-0.4885496,0.2977099
0.1723633,0.9575195,-0.1520996,-1.389313,0.007633588,-1.572519
0.08984375,0.9731445,-0.119873,-1.938931,-0.1679389,0.2671756
0.111084,0.9729004,-0.09545898,-1.564886,-0.3053435,1.709924
0.1569824,0.9685059,-0.1069336,-1.007634,-0.351145,0.4351145
0.1611328,0.9724121,-0.1054688,-0.2061069,-0.7022901,-0.4122138
0.1286621,0.9724121,-0.1030273,-0.2519084,-0.9007633,-0.01526718
0.1052246,0.9765625,-0.112793,-0.1832061,-0.9160305,1.519084
-eTwist-,-e-,-e-,-e-,-e-,-e-
-sTwist-,-s-,-s-,-s-,-s-,-s-
0.1369629,0.967041,-0.1169434,-0.7557252,-0.6870229,0.1908397
0.1328125,0.9655762,-0.1384277,-2.992366,-0.4503817,0.03816794
0.1381836,0.9404297,-0.1162109,-4.847328,-21.05343,-0.1679389
0.6096191,0.9240723,-0.3410645,-14.93893,-218.3817,-29.18321
-0.1623535,0.9631348,-0.1376953,-21.61832,-197.7634,-25.24427
-0.0402832,0.8811035,-0.03808594,-19.78626,-200.0076,-15.30534
0.2663574,0.9399414,-0.06347656,-18.96183,-248.1832,-15.08397
-0.1027832,1.00708,-0.04443359,-26.29771,-248.1832,17.9313
0.3637695,0.8266602,-0.08276367,-18.59542,-248.1832,-3.167939
-0.1240234,0.9882813,-0.008789063,-13.1374,-209.0458,12.0916
0.09765625,0.9265137,-0.04248047,-16.84733,-198.3512,11.31298
0.3901367,0.8737793,-0.1994629,-23.0458,-238.9084,-16.36641
0.2053223,1.000977,-0.1213379,-19.52672,-248.1832,-15.18321
0.1496582,1.01123,-0.1052246,-20.51908,-248.1832,-15.0687
-0.5373535,1.247559,0.0004882813,-14.93893,160.0534,81.22137
0.1237793,0.2124023,-0.3659668,-6.534351,138.6947,76.9542
0.3139648,1.206299,0.3063965,36.77863,163.0076,25.89313
0.3793945,0.9567871,0.02880859,11.8626,250.1298,-69.22137
0.2099609,0.7585449,-0.2414551,34.54962,129.229,54.27481
-0.2941895,1.222656,0.3178711,47.01527,212.0687,17.40458
0.1643066,0.6289063,-0.5039063,-7.068702,247.9008,-27.58779
-0.07104492,0.9570313,-0.456543,16.62595,221.0076,20.25954
0.2126465,1.135986,0.1003418,6.396946,250.1298,-17.9084
0.007568359,0.8078613,-0.1140137,10.61832,194.9466,16.18321
0.2727051,1.208252,0.07592773,23.25954,98.90839,2.29771
0.1970215,0.9436035,-0.1171875,3.610687,27.14504,4.221374
0.1452637,0.8459473,-0.4025879,-3.206107,-5.839694,5.51145
0.114502,0.9873047,-0.1564941,-3.145038,-2.290076,10.12977
0.1247559,1.03125,0.04394531,-1.175573,-1.870229,11.05344
0.2177734,0.9526367,-0.0847168,0.480916,-2.70229,5.778626
0.2687988,0.9592285,-0.1845703,0.8091603,-0.9236641,-2.251908
0.1933594,0.9780273,-0.1499023,-2.10687,-0.5267176,-5.519084
0.06738281,0.9819336,-0.08544922,-3.351145,-0.3587786,-1.435114
0.01977539,0.9824219,-0.06396484,0.6335878,-0.3053435,4.656488
0.1477051,0.9775391,-0.09912109,1.603053,-1.458015,3.465649
0.2128906,0.9689941,-0.138916,1.473282,-0.7709923,-0.8778625
0.1796875,0.9655762,-0.1633301,-0.8931297,-0.5496183,-2.877863
0.08740234,0.9714355,-0.1437988,-3.778626,0.03053435,-0.08396947
0.09277344,0.9741211,-0.07592773,-3.717557,0.1679389,2.717557
0.1721191,0.9804688,-0.05200195,0.4198473,-0.6870229,1.312977
0.1962891,0.9685059,-0.1130371,0.9694656,-0.7175572,-1.053435
0.1447754,0.9650879,-0.145752,-0.07633588,-0.7480916,-0.8778625
0.1069336,0.9733887,-0.1271973,-1.21374,-0.4198473,1.312977
-eTwist-,-e-,-e-,-e-,-e-,-e-
-sTwist-,-s-,-s-,-s-,-s-,-s-
0.1381836,0.9802246,-0.1201172,-0.8625955,-0.6030535,0.3969466
0.1496582,0.9697266,-0.09204102,1.137405,-1.458015,0.4427481
0.2663574,1.039551,-0.07275391,2.129771,-57.1832,-13.12214
0.5292969,0.9296875,-0.2988281,-18.85496,-197.6794,-24.23664
0.3869629,0.9526367,-0.2438965,-23.36641,-248.1832,-48.80153
-0.1843262,1.200439,0.1564941,-14.96947,-233.8015,5.396946
0.2749023,0.7458496,-0.4406738,-33.61832,-238.8931,-26.54962
0.08764648,1.034424,-0.04248047,-11.66412,-248.1832,-10.21374
-0.01269531,1.064941,0.1381836,-15.48855,-245.5114,-34.45802
-0.1716309,0.8972168,-0.2780762,-4.396946,-203.1527,7.152672
0.126709,0.996582,-0.1655273,-12.36641,-172.5496,15.45802
0.2414551,0.8913574,-0.1777344,-11.21374,-199.0153,3.458015
0.3193359,0.9294434,-0.03369141,-15.37405,-248.1832,-30.78626
0.02563477,0.9599609,-0.08642578,-22.62595,-248.1832,-10.0458
-0.5637207,1.139648,-0.09326172,-25.52672,199.9847,-16.43511
0.1374512,0.9833984,-0.2719727,8.648855,184.0611,50.22901
0.3608398,0.9274902,0.05102539,37.16794,139.1069,53.45038
-0.1303711,1.190674,0.4772949,43.74046,216.5267,59.19847
0.8491211,0.9143066,0.01049805,24.29771,189.7634,-26.74046
-0.1643066,0.9084473,-0.2768555,34.9084,235.7099,27.25954
0.170166,1.072754,-0.2006836,12.53435,250.1298,-37.60305
0.008056641,0.7741699,-0.2155762,16.59542,184.4198,-12.80916
-0.2177734,1.150879,-0.04150391,15.53435,201.3817,36.1145
0.3012695,1.022217,-0.01367188,7.91603,225.9313,-18.74809
-0.208252,0.8991699,-0.1645508,20.16794,209.1985,39.41221
1.102539,1.035645,0.01806641,22.94657,118.0153,-0.8549618
0.09423828,0.9506836,-0.2548828,6.061069,70.67939,2.343511
0.234375,0.979248,-0.3417969,-1.198473,0.6870229,0.8015267
0.02246094,1.015381,-0.03442383,-10.80916,2.160305,8.160305
0.1098633,0.9570313,-0.004882813,-3.709924,0.1374046,8.732824
0.1081543,0.9926758,-0.01367188,4.38168,-1.091603,10.20611
0.1433105,0.9868164,-0.1340332,5.740458,-0.4198473,9.076336
0.1535645,0.947998,-0.2270508,-0.6870229,0.1450382,7.007634
0.1647949,0.949707,-0.1845703,-7.053435,0.7557252,4.946565
0.1601563,0.9768066,-0.03417969,-2.78626,-0.5496183,2.175573
0.1699219,0.9841309,-0.03637695,1.946565,-0.7938931,0.3129771
0.1433105,0.9707031,-0.1269531,3.335878,-0.8091603,-0.1221374
0.1352539,0.9648438,-0.1787109,0.2519084,-1.679389,-0.007633588
0.1096191,0.9645996,-0.1520996,-2.946565,-0.5419847,1.10687
0.1179199,0.9741211,-0.09521484,-3.099237,0.4885496,1.48855
0.1367188,0.9851074,-0.07763672,-1.427481,-0.4961832,1.480916
0.168457,0.9750977,-0.06835938,0.961832,-1.045802,0.5114504
0.1584473,0.9614258,-0.1418457,0.5725191,-1.29771,-0.3206107
-eTwist-,-e-,-e-,-e-,-e-,-e-
-sTwist-,-s-,-s-,-s-,-s-,-s-
0.1335449,0.9729004,-0.1257324,-0.610687,-0.8015267,0.4961832
0.1550293,0.9645996,-0.07641602,1.343511,-2.465649,1.137405
0.15625,1.027344,-0.06445313,-0.778626,-1.022901,-0.2290076
0.2954102,1.022217,-0.09033203,-0.1221374,-66.1145,-13.93893
0.4956055,0.8962402,-0.2807617,-19.73282,-210.5496,-25.18321
0.3442383,0.9431152,-0.1743164,-24.87023,-248.1832,-43.08397
-0.3308105,1.118164,-0.1333008,-27.83969,-239.4122,5.717557
0.1936035,0.8395996,-0.08056641,-31.07634,-234.687,-22.92366
0.2565918,0.8283691,-0.2373047,-20.89313,-248.1832,-24.15267
-0.2265625,1.138184,0.1962891,-9.427481,-225.6336,-26.24427
-0.01977539,0.8271484,-0.3027344,-18.12214,-126.6718,-1.793893
0.1459961,1.044189,-0.199707,0.7633588,-161.4809,23.79389
0.3286133,1.029541,0.01000977,-17.45038,-224.5038,-12.66412
0.2575684,0.8684082,-0.3071289,-22.15267,-248.1832,-21.9084
0.004150391,1.041016,-0.1469727,-19.12214,-214.7405,-51.15267
-1.081055,1.027344,0.3251953,-7.335878,105.2672,92.55725
0.15625,0.7897949,0.01806641,-2.923664,250.1298,12.85496
0.2880859,0.8378906,0.05419922,34.61069,132.4275,66.8168
-0.1809082,1.246582,0.4108887,37.89313,250.1298,64.71756
1.1875,0.6501465,-0.5751953,16.0458,166.2214,-35.70992
-0.1191406,0.9331055,0.005859375,47.87786,174.9542,49.73283
-0.1921387,1.024414,-0.1542969,17.9084,250.1298,-23.94657
0.0402832,0.6660156,-0.3498535,7.961832,203.5191,5.229008
-0.05688477,1.125732,0.01171875,19.30534,250.1298,19.81679
-0.1047363,0.965332,-0.07397461,-4.854962,2.160305,7.343512
0.06274414,0.9213867,-0.1601563,-2.022901,-3.320611,9.580153
0.1210938,0.9890137,-0.1062012,0.7709923,-0.4961832,9.534351
0.1665039,0.9602051,-0.1071777,-0.8625955,-0.08396947,5.832061
0.1765137,0.9621582,-0.1047363,-1.748092,-1.038168,0.8473283
0.1535645,0.9782715,-0.107666,0.2977099,-0.9083969,-1.534351
0.1030273,0.9816895,-0.1303711,0.8091603,-0.7862596,-0.2671756
0.08813477,0.9633789,-0.1450195,-1.557252,-0.2519084,0.4274809
0.08813477,0.972168,-0.1342773,-1.732824,-0.4732824,1.694656
0.1235352,0.9829102,-0.09057617,-0.5114504,-0.4427481,0.9160305
0.1455078,0.9543457,-0.1237793,-0.778626,-0.4274809,-0.2977099
0.1337891,0.965332,-0.1279297,0.2290076,-0.9236641,-0.6183206
0.105957,0.9748535,-0.1186523,-0.4503817,-0.6259542,0.5038168
0.1091309,0.9768066,-0.1140137,-0.740458,-0.4961832,0.870229
0.119873,0.9736328,-0.1242676,-0.4961832,-0.5648855,0.1832061
0.1318359,0.9731445,-0.112793,-1.068702,-0.8473283,0.3740458
0.1101074,0.9675293,-0.1137695,-0.9847328,-1.0,0.3053435
0.1103516,0.982666,-0.109375,-0.5038168,-0.6870229,0.3282443
0.1118164,0.9753418,-0.1203613,-0.4122138,-0.4274809,0.4961832
-eTwist-,-e-,-e-,-e-,-e-,-e-
-sTwist-,-s-,-s-,-s-,-s-,-s-
0.1086426,0.9802246,-0.1228027,-0.7557252,-0.5572519,0.1603053
0.1257324,1.009766,-0.01171875,1.465649,-3.076336,0.6564885
0.1359863,0.9968262,-0.1335449,-2.198473,-10.03053,0.5572519
0.3679199,0.9101563,-0.2407227,-10.69466,-160.855,10.49618
0.199707,0.9677734,-0.1350098,-15.24428,-248.1832,-22.48855
0.08862305,0.9255371,-0.1447754,-21.94657,-248.1832,-32.40458
-0.3044434,0.954834,0.04858398,-12.8626,-248.1832,-13.78626
-0.2060547,0.904541,-0.1574707,-10.23664,-232.1832,29.80916
0.2287598,0.845459,-0.2390137,-14.74046,-248.1832,24.19847
0.3452148,1.040283,-0.09912109,-13.93893,-248.1832,-1.068702
0.1940918,0.9553223,-0.1904297,-23.12977,-248.1832,-6.51145
0.104248,0.973877,-0.09423828,-21.12214,-233.8702,-6.877862
-0.1020508,1.037842,-0.01342773,-15.72519,-174.0992,5.816794
0.4470215,1.050049,0.0078125,-11.14504,-228.1756,-15.58779
-0.3022461,1.033203,-0.01416016,-15.93893,168.5573,-96.0
0.1428223,0.907959,-0.1730957,20.03817,149.7863,57.44275
0.2670898,1.294189,0.4172363,31.40458,127.2595,82.06107
0.5759277,0.9233398,0.03833008,-5.709924,250.1298,-6.305344
0.1472168,0.5324707,-0.4157715,29.90076,179.4427,-22.09924
-0.1750488,1.322998,-0.1330566,27.77099,250.1298,14.08397
0.3779297,1.073242,-0.3032227,7.70229,250.1298,-32.8855
-0.05810547,0.9604492,-0.2158203,27.32061,235.5573,25.81679
0.3395996,1.041504,0.1560059,21.77863,250.1298,-10.34351
-0.07397461,0.878418,-0.2180176,10.0,172.3817,-2.290076
0.9440918,0.9008789,-0.329834,9.671756,-54.40458,-33.28244
0.2180176,1.005859,-0.2841797,-8.625955,-33.0458,-54.72519
-0.1831055,1.077393,0.002441406,-1.167939,-1.236641,-4.984733
0.0625,1.034424,0.02758789,-6.580153,0.961832,-8.488549
-0.03295898,0.9941406,-0.02929688,0.389313,0.4351145,2.687023
0.06811523,0.979248,-0.130127,5.396946,0.3206107,5.908397
0.1303711,0.9577637,-0.2243652,-1.206107,0.1145038,5.236641
0.1635742,0.9797363,-0.1416016,-5.374046,0.2061069,1.870229
0.1557617,0.9750977,-0.06152344,-4.068702,-0.8244275,-1.564886
0.1118164,0.9772949,-0.05859375,0.9465649,-1.022901,-1.900763
0.0793457,0.9836426,-0.1103516,3.80916,-1.442748,-0.05343511
0.07495117,0.9702148,-0.1796875,-0.7862596,-0.06870229,1.793893
0.1074219,0.965332,-0.1604004,-3.519084,-0.2213741,1.709924
0.1364746,0.9814453,-0.08227539,-1.778626,-0.7862596,0.07633588
0.1230469,0.972168,-0.07763672,0.2137404,-0.4732824,-0.6793893
0.1044922,0.9799805,-0.126709,1.877863,-0.7328244,-0.4045802
0.09863281,0.9775391,-0.1660156,0.2519084,-0.6335878,0.519084
0.1066895,0.9692383,-0.1411133,-2.312977,-0.5496183,0.9541985
0.1123047,0.9716797,-0.1120605,-2.679389,-0.5801527,0.610687
-eTwist-,-e-,-e-,-e-,-e-,-e-
-sTwist-,-s-,-s-,-s-,-s-,-s-
0.1098633,0.9694824,-0.1396484,-0.8015267,-0.8396947,0.09160305
0.1242676,0.9899902,-0.1474609,0.3282443,-3.664122,0.961832
0.1242676,1.011963,-0.07055664,0.7557252,0.1450382,-1.427481
0.1501465,0.9562988,-0.1235352,-2.0,-42.35878,17.45802
-0.1989746,1.003662,-0.1513672,-18.08397,-227.0153,6.755725
0.07543945,0.9370117,-0.1420898,-17.0,-248.1832,17.70229
0.2297363,1.00708,-0.140625,-17.05343,-248.1832,5.0
0.2243652,1.003174,-0.09545898,-22.38168,-244.0305,-0.09923664
0.3896484,0.902832,-0.1286621,-27.38931,-248.1832,-16.15267
0.06835938,0.9699707,-0.190918,-17.08397,-248.1832,-10.81679
0.3125,0.9284668,-0.09692383,-21.41221,-248.1832,-22.9313
-0.1186523,1.04126,-0.2053223,-13.01527,-228.6718,-5.015267
0.6894531,1.061768,-0.03222656,-8.427481,-248.1832,-23.09924
-0.3618164,0.9645996,-0.09912109,-23.0687,90.57252,-91.37405
-0.09985352,0.8234863,-0.302002,8.740458,140.855,55.9313
0.02709961,1.250732,0.359375,20.45802,143.7786,95.64122
0.5739746,1.104492,0.1291504,-3.526718,250.1298,-28.0916
0.2197266,0.5178223,-0.4641113,33.32824,185.5878,-7.167939
-0.1166992,1.485352,0.3669434,52.25191,250.1298,15.71756
0.744873,0.8044434,-0.4611816,5.862596,217.9847,-11.05344
-0.1811523,1.003418,-0.1169434,29.59542,243.0534,37.46565
-0.1801758,1.1875,0.05615234,21.48855,250.1298,-16.59542
0.05566406,0.7651367,-0.08081055,13.07634,227.5954,-15.0
-0.05566406,1.138916,-0.1447754,25.9771,231.6183,25.41221
0.3735352,0.9140625,-0.08496094,7.10687,64.70229,-25.9771
0.2663574,0.8061523,-0.4680176,-7.458015,-73.85497,-35.61832
-0.2810059,1.134521,-0.1030273,-1.114504,37.35878,-66.47328
-0.234375,0.9060059,-0.1928711,-9.335877,12.94656,1.992366
0.08300781,1.005127,-0.09204102,-0.389313,5.40458,6.938931
0.1120605,1.041748,-0.03930664,3.70229,1.870229,8.961832
0.1459961,0.9768066,-0.1313477,-0.04580153,1.145038,6.977099
0.1538086,0.9638672,-0.1782227,-1.374046,0.351145,3.648855
0.1501465,0.9790039,-0.140625,-2.099237,0.129771,-0.9541985
0.1018066,0.9819336,-0.1030273,-2.129771,-0.2671756,-0.9312977
0.08666992,0.9799805,-0.1000977,-1.145038,-0.6259542,-0.08396947
0.07421875,0.9831543,-0.1120605,0.2748091,-0.8778625,1.648855
0.1025391,0.972168,-0.1311035,-0.2366412,-0.2061069,1.572519
0.1262207,0.9731445,-0.1367188,-0.6259542,-0.6717557,0.1755725
0.1101074,0.9799805,-0.1169434,-1.519084,-0.2977099,-0.740458
0.1008301,0.9802246,-0.1113281,-0.5572519,-0.4885496,-0.2137404
0.08959961,0.9797363,-0.1186523,-0.2671756,-0.5419847,0.6870229
0.09692383,0.9714355,-0.1323242,-0.4503817,-0.4885496,1.045802
0.1079102,0.972168,-0.1428223,-1.076336,-0.5877862,0.3587786
-eTwist-,-e-,-e-,-e-,-e-,-e-
-sTwist-,-s-,-s-,-s-,-s-,-s-
0.1025391,0.9775391,-0.1291504,-0.3053435,-0.832061,0.2900764
0.1049805,1.020264,-0.08251953,1.496183,-3.694656,1.045802
0.1147461,0.9645996,-0.1223145,-0.4351145,-0.1679389,-0.9694656
0.1230469,0.9909668,-0.130127,-0.7328244,-0.6717557,-1.931298
0.3444824,0.9152832,-0.1362305,-3.664122,-155.9008,1.870229
0.2885742,0.9321289,-0.2744141,-19.64886,-237.916,-32.9542
-0.1535645,0.9570313,-0.2121582,-17.8855,-248.1832,-8.679389
-0.05566406,0.986084,-0.137207,-16.66412,-248.1832,0.6564885
-0.1469727,0.9799805,-0.08300781,-16.96947,-248.1832,14.65649
0.1533203,0.9709473,-0.185791,-19.16794,-248.1832,10.40458
0.154541,0.9572754,-0.1821289,-15.15267,-248.1832,8.114504
0.1962891,0.9838867,-0.128418,-23.53435,-247.2595,0.7938931
0.2890625,0.9614258,-0.0690918,-20.03053,-248.1832,-11.98473
-0.09936523,1.03418,-0.06884766,-15.27481,17.0916,-103.1069
-1.499512,0.8911133,-0.2307129,17.40458,106.9924,77.0687
0.2478027,1.310791,0.5375977,17.98473,133.7786,69.17558
0.3962402,0.8242188,-0.015625,6.870229,250.1298,2.618321
0.2922363,0.7839355,-0.5251465,34.66412,192.1221,-1.099237
-0.05151367,1.12915,-0.03930664,27.10687,250.1298,-17.06107
0.2041016,0.7028809,-0.2792969,12.92366,204.145,-47.48855
-0.1079102,1.287598,-0.1491699,34.63359,185.0305,44.62595
0.4746094,1.042236,0.2006836,6.534351,250.1298,-31.75573
0.005126953,0.826416,-0.2822266,11.63359,219.2214,36.03053
-0.2763672,1.119385,0.3125,27.23664,250.1298,-8.870229
0.192627,0.6962891,-0.3762207,1.496183,170.0687,-6.221374
0.8706055,0.9978027,-0.3308105,15.33588,-49.09924,-41.17557
0.1083984,1.051025,-0.2568359,-10.37405,-17.0,-65.76336
-0.2578125,0.8896484,-0.1208496,-6.748092,-16.19847,-8.503817
0.1652832,0.9638672,-0.171875,-0.610687,-0.8854962,0.1908397
0.1286621,0.9689941,-0.1672363,-2.70229,-0.01526718,-1.549618
0.1000977,0.9780273,-0.1010742,-2.167939,-0.8091603,-1.725191
0.06225586,0.980957,-0.06762695,-0.7709923,-0.4198473,0.5419847
0.07519531,0.9714355,-0.1159668,0.7099237,-0.648855,1.885496
0.1066895,0.9724121,-0.1330566,0.610687,-0.8396947,1.656489
0.1228027,0.9726563,-0.1513672,-0.7328244,-0.7175572,0.1221374
0.1120605,0.9768066,-0.1281738,-2.015267,-0.2748091,-0.7022901
0.1105957,0.9829102,-0.1103516,-0.7862596,-0.8549618,-0.4732824
0.08129883,0.9816895,-0.1113281,0.2061069,-0.7557252,0.6030535
0.09228516,0.9724121,-0.142334,-0.1832061,-0.7938931,0.9389313
0.1071777,0.9724121,-0.1416016,-0.7022901,-0.9465649,0.6717557
0.1105957,0.979248,-0.1147461,-1.29771,-0.3969466,0.02290076
0.104248,0.9755859,-0.1088867,-1.015267,-0.3206107,-0.1374046
0.09692383,0.9838867,-0.1137695,-0.2213741,-0.7251908,0.2061069
-eTwist-,-e-,-e-,-e-,-e-,-e-
-sTwist-,-s-,-s-,-s-,-s-,-s-
0.09985352,0.9587402,-0.08886719,0.8244275,-0.5725191,0.3969466
0.08398438,0.935791,-0.1103516,-4.679389,-1.938931,1.625954
0.0612793,0.9431152,-0.1501465,-1.992366,-3.847328,0.7862596
0.2119141,0.8796387,-0.1557617,-3.519084,-109.1527,24.81679
0.3251953,1.009033,-0.2387695,-15.72519,-201.4351,-18.67939
-0.03295898,0.972168,-0.2272949,-8.442748,-248.1832,-19.14504
-0.1137695,0.9685059,-0.1791992,-17.57252,-248.1832,-2.89313
-0.1706543,0.9821777,-0.1140137,-17.48092,-248.1832,10.35114
0.04296875,0.967041,-0.2324219,-19.75573,-248.1832,15.33588
0.2099609,1.06665,-0.08300781,-14.41221,-248.1832,8.465649
0.1975098,0.9299316,-0.1855469,-24.96183,-248.1832,2.923664
0.1843262,0.9321289,-0.1337891,-22.01527,-231.2672,-3.335878
0.3776855,0.9909668,0.0007324219,-19.12214,-248.1832,-17.63359
0.2497559,0.9748535,-0.05615234,-14.99237,-248.1832,-26.67175
-0.1552734,1.00708,-0.07861328,-18.9771,-138.7252,-60.46565
-1.57251,0.972168,0.3024902,10.89313,125.5191,87.72519
0.08105469,0.8474121,0.2299805,-6.38168,250.1298,27.56489
0.4208984,0.5732422,-0.4516602,28.10687,124.4657,13.03053
-0.007324219,0.9191895,-0.1652832,41.05344,140.0458,-3.427481
-0.2399902,1.369629,0.3820801,18.25954,250.1298,18.87786
0.3735352,0.5556641,-0.5661621,-0.2213741,215.4886,-17.51145
-0.1833496,1.150879,-0.2958984,35.61069,250.1298,14.80153
1.135986,1.070068,0.09228516,14.96947,250.1298,-28.98473
0.166748,0.8874512,-0.3864746,10.70992,213.3435,-15.67939
0.5292969,1.116699,-0.09692383,18.31298,-5.251908,-36.89313
0.1181641,0.9082031,-0.3181152,-14.10687,-59.67176,-34.82443
-0.2988281,0.9841309,-0.229248,-17.39695,13.05344,-35.50382
-0.328125,0.9589844,-0.03637695,-1.664122,9.053435,6.603054
-0.001220703,0.9770508,-0.06420898,-0.6259542,1.824428,13.70992
0.1218262,0.9560547,-0.1604004,1.816794,-0.1755725,14.03053
0.1608887,0.9658203,-0.1730957,1.007634,0.2748091,12.59542
0.1787109,0.9772949,-0.1572266,-2.824427,0.4045802,6.603054
0.1604004,0.9682617,-0.1191406,-3.381679,-1.229008,-1.51145
0.08081055,0.9741211,-0.1005859,-1.816794,0.3664122,-0.3206107
0.09399414,0.9968262,-0.09814453,1.496183,-0.5648855,0.5343512
0.1015625,0.9833984,-0.1601563,1.0,-0.8854962,0.6641222
0.1064453,0.980957,-0.1560059,-1.580153,-0.7328244,0.3969466
0.1123047,0.96875,-0.1279297,-2.648855,-0.4045802,0.129771
0.09667969,0.9748535,-0.09814453,-1.061069,-0.5877862,0.1603053
0.09521484,0.9799805,-0.109375,0.648855,-0.7251908,0.3206107
0.1027832,0.972168,-0.1369629,0.870229,-0.8015267,0.4503817
0.1083984,0.9753418,-0.1560059,-0.6641222,-0.7480916,0.1908397
0.09326172,0.9763184,-0.1413574,-1.78626,-0.5648855,0.09160305
-eTwist-,-e-,-e-,-e-,-e-,-e-
-sTwist-,-s-,-s-,-s-,-s-,-s-
0.09814453,0.9750977,-0.130127,-0.8396947,-0.7557252,0.3435115
0.09863281,1.032959,-0.078125,-0.5419847,-0.5725191,-0.01526718
0.1096191,0.9638672,-0.1276855,-3.564885,-0.9083969,0.6946565
0.09448242,0.9650879,-0.1601563,-1.396947,-0.5877862,-2.282443
0.3041992,0.8833008,-0.1677246,-7.137404,-130.313,-20.35878
0.6147461,0.9516602,-0.2700195,-16.92366,-248.1832,-38.38931
-0.2114258,0.9287109,-0.2329102,-21.98473,-248.1832,-10.1145
0.01098633,1.069092,-0.08105469,-14.03053,-248.1832,4.122138
0.3378906,0.9501953,-0.1352539,-27.0458,-248.1832,-15.75572
0.2590332,0.9406738,-0.2600098,-27.16794,-248.1832,-19.19847
-0.1049805,1.019287,-0.1330566,-21.00763,-234.4886,-2.335878
0.7910156,1.020752,0.1889648,-20.35878,-248.1832,-36.9771
-0.2041016,1.072266,0.1289063,-12.9771,-249.3435,-5.580153
0.1574707,0.9294434,-0.1665039,-15.90076,-248.1832,-16.81679
-0.2258301,1.004395,-0.1923828,-11.0458,-87.35114,-46.37405
-1.323486,1.124023,0.3483887,9.679389,121.2443,85.67175
-0.09106445,0.8461914,0.4182129,-1.671756,250.1298,76.61069
0.3603516,0.5874023,-0.3339844,-1.89313,167.7634,28.0687
-0.01318359,1.300537,0.2336426,42.42748,226.4198,14.33588
0.1889648,0.8964844,0.05151367,17.00763,250.1298,15.34351
0.6757813,0.7849121,-0.3186035,22.96947,194.4504,-16.53435
-0.251709,1.148682,0.1291504,39.71756,250.1298,15.61069
1.595459,0.8806152,-0.5615234,2.229008,224.4809,-33.03817
-0.07421875,0.9748535,-0.3979492,21.0687,250.1298,-4.08397
0.7790527,1.045898,-0.0925293,11.33588,100.9771,-31.50382
-0.04736328,1.012695,-0.293457,-10.93893,-43.05344,-46.27481
-0.2473145,0.9711914,-0.1848145,-9.709924,-50.0916,-33.82443
-0.3640137,0.963623,-0.09277344,-10.75572,-41.82443,10.00763
-0.345459,1.020996,0.05859375,-2.694656,3.832061,30.83969
0.1083984,0.9575195,-0.09521484,2.618321,-8.610687,29.43511
0.1762695,0.989502,-0.177002,2.992366,1.152672,32.67176
0.2277832,0.9326172,-0.2023926,-2.816794,2.992366,33.32061
0.3166504,0.965332,-0.1635742,-4.946565,2.755725,-0.1908397
0.260498,0.9538574,-0.08764648,-1.580153,1.389313,-8.259542
0.1594238,0.9958496,-0.04003906,3.89313,-0.06870229,-10.92366
0.04736328,0.9882813,-0.1142578,3.267176,-0.5343512,-7.21374
0.005126953,0.970459,-0.1904297,-0.1450382,-0.7862596,-1.10687
0.02539063,0.9680176,-0.1787109,-3.061069,-0.1755725,2.992366
0.09985352,0.9841309,-0.1164551,-3.541985,-0.3969466,3.061069
0.1574707,0.9873047,-0.07861328,-1.145038,-0.5954198,0.04580153
0.1328125,0.9770508,-0.09790039,1.015267,-0.870229,-1.503817
0.09204102,0.9716797,-0.1367188,1.099237,-0.8473283,-1.19084
0.06591797,0.9699707,-0.1638184,-0.8396947,-0.3664122,0.9847328
-eTwist-,-e-,-e-,-e-,-e-,-e-
-sTwist-,-s-,-s-,-s-,-s-,-s-
0.09594727,0.979248,-0.1254883,-0.4351145,-0.5496183,0.09923664
0.09887695,0.9995117,-0.07641602,1.366412,-2.282443,1.152672
0.09472656,1.02002,-0.09790039,-0.4885496,-0.4122138,-0.01526718
0.1708984,1.012939,-0.1394043,-0.7328244,-2.557252,0.8167939
0.8486328,1.012695,-0.008056641,-2.068702,-161.7939,-31.19084
0.08520508,0.9074707,-0.1618652,-11.64886,-240.0458,-30.50382
-0.1896973,0.9624023,-0.1904297,-13.03053,-215.6641,-19.38168
0.0546875,0.9645996,-0.1914063,-15.12214,-235.2595,-18.96183
-0.2094727,1.007568,-0.1569824,-15.41221,-248.1832,33.17557
0.2954102,1.055176,0.01977539,-16.60305,-248.1832,-7.328244
0.08666992,0.958252,-0.1218262,-13.54962,-248.1832,-5.015267
-0.1040039,0.918457,-0.3010254,-22.71756,-248.1832,-5.19084
-0.09228516,1.004395,-0.2663574,-20.56489,-226.229,20.64122
0.2248535,0.9355469,-0.1584473,-15.8855,-248.1832,-18.79389
-0.3388672,1.01001,-0.1035156,-16.49618,34.68702,-73.93893
-0.6376953,1.003174,-0.342041,10.1145,133.0,71.06107
0.121582,1.218262,0.4821777,24.56489,205.4198,66.93893
0.487793,0.7338867,-0.232666,1.076336,200.7176,1.091603
-0.007324219,1.016846,-0.07177734,35.39695,231.542,11.29008
-0.01660156,0.9824219,0.1848145,33.14504,250.1298,14.25954
0.6865234,0.8034668,-0.3710938,21.93893,194.8702,-22.19084
-0.1650391,1.19165,-0.01953125,36.31298,250.1298,9.480916
0.8398438,0.8691406,-0.1745605,9.442748,233.3969,-30.67175
-0.07714844,1.056152,-0.1477051,20.07634,250.1298,-8.709924
0.3999023,0.8830566,-0.302002,3.648855,61.20611,-28.67175
0.1020508,0.9443359,-0.3571777,-1.89313,-26.10687,-39.12214
-0.2666016,1.038818,-0.1828613,-5.656488,-17.51908,-32.76336
-0.3374023,0.9572754,-0.08984375,-11.80153,-39.23664,15.43511
0.01855469,0.979248,-0.09082031,-4.419847,-57.67176,13.60305
-0.1899414,0.9907227,0.02441406,0.1450382,7.267176,33.09924
0.1716309,0.9350586,-0.1955566,0.6793893,1.267176,45.32061
0.2429199,0.9587402,-0.1923828,-1.541985,6.061069,19.79389
-0.004150391,0.970459,-0.1401367,1.221374,-1.396947,-2.709924
0.007324219,0.9672852,-0.1706543,-0.129771,-0.4656488,1.580153
0.06469727,0.9709473,-0.1647949,-1.885496,-0.03816794,3.030534
0.1279297,0.9838867,-0.1088867,-2.183206,-0.1450382,0.7938931
0.135498,0.9758301,-0.09667969,-1.305344,-0.5877862,-1.267176
0.09814453,0.9819336,-0.1125488,0.9312977,-0.8778625,-0.7938931
0.07885742,0.9804688,-0.1289063,1.145038,-0.870229,0.4961832
0.07983398,0.9733887,-0.1618652,-0.3587786,-0.740458,1.045802
0.1062012,0.9694824,-0.1533203,-1.938931,-0.4198473,0.3358779
0.1125488,0.9714355,-0.1179199,-1.70229,-1.038168,-0.259542
0.08666992,0.9787598,-0.1000977,-0.4198473,-0.7022901,-0.259542
-eTwist-,-e-,-e-,-e-,-e-,-e-
-sTwist-,-s-,-s-,-s-,-s-,-s-
0.08422852,0.9785156,-0.1154785,-1.480916,-0.4580153,-0.7251908
0.07836914,1.036865,-0.08959961,0.519084,-0.6412213,1.0
0.06567383,0.9350586,-0.1313477,-6.877862,-26.18321,2.992366
0.4416504,0.9909668,-0.1230469,-2.793893,-153.7023,-15.27481
0.1503906,1.00293,-0.2702637,-13.8855,-233.1374,-35.63359
-0.2333984,0.9570313,-0.07861328,-10.25954,-247.6641,-8.106871
-0.1762695,0.9567871,-0.1726074,-16.03053,-221.916,9.59542
0.267334,1.018555,-0.1845703,-17.41985,-248.1832,-5.473282
-0.2338867,1.005371,0.1293945,-8.839695,-248.1832,30.48092
0.1743164,0.9675293,-0.1103516,-19.14504,-248.1832,16.48855
0.3388672,0.9619141,-0.1137695,-15.07634,-248.1832,-7.564886
-0.1030273,1.019531,-0.1694336,-18.41221,-224.8015,6.366412
0.9484863,0.9716797,-0.1345215,-14.18321,-248.1832,-19.83969
-0.184082,0.9931641,-0.1086426,-24.39695,-111.3893,-37.64122
-0.7861328,1.022949,-0.03076172,0.4045802,165.0229,67.26717
0.1542969,0.7897949,-0.08129883,-6.671756,250.1298,29.82443
0.2426758,0.7868652,-0.02880859,18.93893,181.5725,53.8168
0.2412109,1.215576,0.2563477,27.34351,235.1298,4.816794
0.3103027,0.8325195,-0.265625,15.25191,250.1298,-1.778626
0.3762207,1.015625,-0.251709,35.9542,229.0611,-10.62595
0.08300781,0.996582,-0.1149902,23.26718,250.1298,-30.60305
0.2583008,0.9448242,-0.2631836,10.00763,250.1298,-16.17557
0.05493164,1.154297,-0.07666016,28.40458,240.8397,-10.09924
-0.203125,0.9714355,0.06079102,10.30534,250.1298,-5.91603
0.2119141,0.7375488,-0.5478516,-2.122137,190.7176,-11.73282
0.3276367,1.107422,-0.248291,15.36641,32.22137,-11.99237
-0.2060547,0.9438477,-0.3339844,-6.221374,-40.54198,4.847328
-0.05078125,1.007568,-0.109375,-9.610687,-63.86259,14.0458
-0.2077637,0.973877,-0.02148438,-6.557252,10.14504,23.32061
0.109375,0.8735352,-0.1796875,-2.687023,3.496183,38.07634
0.4074707,1.015137,-0.08862305,1.0,-3.793893,9.80916
0.2924805,0.9951172,-0.08544922,-0.1068702,-2.59542,-2.992366
0.2248535,0.9245605,-0.1555176,-1.900763,-0.5496183,-11.09924
0.09692383,0.973877,-0.1313477,0.778626,-0.5343512,-11.32824
0.01611328,0.9931641,-0.1162109,1.381679,-1.038168,-5.778626
-0.008789063,0.982666,-0.1342773,0.7480916,-1.129771,-0.4351145
0.02783203,0.9729004,-0.1430664,-0.4274809,-0.7862596,3.129771
0.09179688,0.9755859,-0.1445313,-1.458015,-0.3969466,2.496183
0.1523438,0.9746094,-0.1203613,-1.381679,-0.3129771,-1.022901
0.1030273,0.9824219,-0.1000977,-0.1832061,-0.8015267,-1.717557
0.05810547,0.9768066,-0.1137695,0.5114504,-0.6030535,0.1832061
0.06835938,0.9716797,-0.1386719,0.09160305,-0.7328244,1.366412
0.09277344,0.9714355,-0.1560059,-1.274809,-0.519084,0.7633588
-eTwist-,-e-,-e-,-e-,-e-,-e-
-sTwist-,-s-,-s-,-s-,-s-,-s-
0.09130859,0.9733887,-0.138916,-0.9160305,-0.3435115,0.09160305
0.09667969,0.9580078,-0.1630859,-3.099237,-0.3664122,0.1450382
0.1018066,0.9621582,-0.1677246,-2.335878,-3.435115,-0.1068702
0.06787109,0.9125977,-0.1540527,-5.687023,-78.35878,-7.419847
0.5107422,0.9367676,-0.01123047,-2.496183,-233.2519,-32.35878
-0.1855469,1.018799,-0.2158203,-13.05344,-248.1832,-43.74046
-0.277832,0.9257813,-0.1650391,-14.83969,-201.0611,-26.28244
-0.262207,0.96875,-0.1464844,-11.67939,-242.8779,32.34351
0.1027832,0.9033203,-0.2958984,-24.87023,-240.2977,-13.85496
-0.1967773,0.9663086,-0.2114258,-11.15267,-248.1832,53.10687
0.5153809,1.087646,-0.2021484,-18.16031,-248.1832,-8.717557
1.520752,1.071289,-0.2685547,-18.56489,-248.1832,-28.36641
-0.2302246,1.043457,0.03295898,-12.10687,-248.1832,24.38168
0.2722168,0.8972168,-0.1787109,-33.27481,-230.4809,-23.49618
-0.2163086,1.065186,-0.0534668,-6.022901,-14.25191,-32.03817
-0.939209,1.079346,0.369873,20.69466,157.0992,64.57252
0.06445313,0.9052734,0.1462402,12.45802,216.2977,62.49618
0.2358398,0.7883301,-0.1743164,9.603053,217.3359,31.57252
0.1640625,1.057129,-0.1445313,27.29771,250.1298,11.8855
0.3896484,0.9890137,-0.2016602,15.54198,250.1298,-7.312977
0.1677246,1.041504,-0.2407227,28.14504,250.1298,-4.015267
-0.01123047,1.036621,-0.08203125,27.58779,250.1298,-0.4503817
0.3791504,0.9013672,-0.197998,21.20611,245.3206,-17.9313
-0.06933594,0.9650879,-0.1960449,24.87786,250.1298,-17.63359
0.3554688,0.972168,-0.1938477,6.167939,80.32825,-21.41221
0.4750977,0.9367676,-0.145752,5.526718,-29.03053,-51.40458
-0.3039551,1.030762,-0.2431641,-7.954198,-9.21374,-52.78626
-0.6682129,0.9274902,-0.1123047,-12.82443,1.160305,15.06107
0.01220703,0.9973145,0.003417969,-1.312977,-5.641222,18.30534
0.06420898,0.9633789,-0.05957031,1.717557,-16.69466,20.12214
0.1396484,0.9685059,-0.1555176,3.656489,-23.89313,19.59542
0.1650391,0.9675293,-0.2473145,0.4580153,-16.50382,19.20611
0.1738281,0.9667969,-0.2104492,-7.427481,0.6259542,2.053435
0.1291504,1.006836,-0.03979492,-2.19084,-1.427481,-3.519084
0.05541992,0.9990234,-0.02514648,3.022901,-1.732824,-1.847328
0.05029297,0.9736328,-0.1293945,4.51145,-1.832061,-0.02290076
0.08422852,0.9628906,-0.1967773,1.549618,-1.366412,0.3053435
0.08496094,0.9711914,-0.1989746,-2.366412,-0.7099237,-0.2519084
0.07739258,0.9748535,-0.1296387,-4.038168,-0.4961832,0.1755725
0.07568359,0.9797363,-0.08398438,-2.114504,-0.519084,0.480916
0.08081055,0.9731445,-0.09814453,1.290076,-0.7022901,0.6335878
0.09008789,0.9821777,-0.1333008,2.145038,-0.961832,0.01526718
0.09741211,0.972168,-0.1696777,-0.4732824,-0.7328244,-0.3816794
-eTwist-,-e-,-e-,-e-,-e-,-e-
-sTwist-,-s-,-s-,-s-,-s-,-s-
0.08203125,0.980957,-0.1306152,-0.8549618,-0.5572519,-0.08396947
0.0625,0.9040527,-0.1201172,1.229008,0.3587786,0.0
0.1257324,0.9401855,-0.1083984,0.05343511,-191.6794,-3.801527
0.2548828,0.7556152,-0.4333496,-25.87023,-165.8321,-49.32061
0.01171875,1.043457,-0.3498535,-10.64122,-205.8092,-39.48092
-0.2519531,1.073242,-0.03735352,-10.87786,-248.1832,32.0687
-0.04882813,0.901123,-0.2041016,-33.31298,-190.8702,-40.03053
0.0004882813,0.9453125,-0.2468262,-0.06870229,-248.1832,28.32825
-0.08422852,1.14502,0.2512207,-1.725191,-237.7328,31.84733
0.3977051,0.8432617,-0.265625,-25.10687,-239.6336,-26.0
-0.1228027,0.9467773,-0.2807617,3.984733,-248.1832,30.28244
-0.1333008,0.9174805,-0.2185059,-33.93893,-234.0534,-12.0916
0.1967773,0.9411621,-0.4697266,-25.78626,-248.1832,-18.69466
-0.208252,1.214844,0.0715332,-29.29008,-169.6641,-26.51145
-0.5148926,0.729248,-0.1738281,-14.92366,68.17558,18.96947
0.08032227,1.054443,0.0002441406,6.870229,205.5649,25.0687
0.1945801,0.9875488,0.07519531,20.94657,203.9771,71.48855
0.4101563,1.003906,0.006103516,16.62595,248.8092,9.839695
0.3779297,0.8789063,-0.2529297,24.89313,249.229,-0.4274809
0.2800293,1.057617,-0.1960449,31.32061,250.1298,-5.137404
0.05175781,0.920166,-0.138916,17.34351,250.1298,-10.98473
0.1708984,0.9140625,-0.2976074,16.58015,249.2824,-15.14504
-0.09692383,1.078613,0.01879883,26.99237,250.1298,-2.618321
0.2993164,0.972168,-0.08154297,14.57252,247.0382,-13.61069
-0.1342773,0.9807129,-0.07568359,18.74809,250.1298,11.54198
0.2783203,0.9355469,-0.0637207,14.29771,86.21374,-31.75573
0.4111328,0.9333496,-0.3759766,-4.839694,-22.98473,-49.80916
-0.2629395,1.0,-0.2810059,-14.57252,-19.64886,-27.66412
-0.453125,0.9519043,-0.06323242,-11.38931,-9.160305,17.20611
0.04980469,0.9755859,-0.01000977,-1.625954,-22.13741,19.05343
0.09057617,1.000488,-0.04199219,2.206107,-27.30534,19.30534
0.1508789,0.9570313,-0.1723633,2.618321,-30.8855,16.24427
0.1467285,0.9648438,-0.2145996,0.5114504,-7.335878,15.32824
0.1711426,0.9404297,-0.2060547,-5.343512,1.572519,15.0229
0.2807617,0.989502,-0.0949707,-4.572519,-3.038168,-3.244275
0.08325195,0.9755859,-0.1604004,-3.076336,-0.3740458,0.09923664
0.07299805,0.9741211,-0.09887695,-3.305344,-0.6412213,0.6335878
0.07983398,0.9829102,-0.09350586,-0.7099237,-0.6870229,0.7480916
0.09448242,0.9892578,-0.1069336,1.625954,-0.870229,0.2519084
0.09057617,0.9699707,-0.1433105,1.061069,-0.7251908,-0.0610687
0.08764648,0.9716797,-0.1777344,-1.435114,-0.3969466,-0.4351145
0.06884766,0.9736328,-0.1403809,-2.534351,-0.610687,0.1526718
0.0690918,0.9846191,-0.1018066,-1.824428,-0.7022901,0.7557252
-eTwist-,-e-,-e-,-e-,-e-,-e-
-sTwist-,-s-,-s-,-s-,-s-,-s-
0.07617188,0.982666,-0.1293945,-0.7022901,-0.6335878,0.4656488
0.09204102,0.956543,-0.1140137,0.5572519,-2.259542,0.9923664
0.09082031,1.048828,-0.1186523,-1.045802,0.1450382,0.4503817
0.1577148,0.9321289,-0.07397461,0.2671756,-131.5954,10.51908
0.2443848,0.7956543,-0.3500977,-20.52672,-190.7099,-15.64122
-0.1516113,0.9035645,-0.2954102,-18.72519,-186.916,-36.87023
-0.04638672,0.9472656,-0.2172852,-11.67939,-248.1832,7.465649
-0.2043457,1.042969,-0.1066895,-21.24427,-194.4427,-16.09924
0.1474609,0.8737793,-0.2558594,-27.0229,-248.1832,-1.709924
0.07641602,0.9975586,-0.1003418,0.0610687,-248.1832,31.0916
-0.1462402,1.089355,0.07519531,-15.12977,-242.1527,8.015267
0.7514648,1.057617,-0.2744141,-11.37405,-248.1832,-10.71756
-0.2158203,1.024902,-0.01611328,-5.778626,-248.1832,32.20611
-0.02636719,0.7836914,-0.2097168,-33.1832,-248.1832,-8.083969
-0.2243652,1.127686,-0.1313477,-25.00763,-15.71756,-54.13741
-1.067139,0.9802246,0.3100586,7.679389,154.0687,68.84733
0.1098633,0.9025879,0.137207,1.137405,235.7786,48.22137
0.3527832,0.9074707,-0.1938477,15.47328,219.229,15.73282
0.2854004,1.172363,0.05224609,35.29771,243.4046,10.85496
0.3186035,0.9243164,-0.09008789,25.85496,250.1298,-4.290076
0.2897949,0.9873047,-0.2922363,27.9313,250.1298,-8.145039
-0.01391602,0.9553223,-0.1860352,20.78626,250.1298,-13.05344
0.2243652,0.8933105,-0.236084,12.25954,250.1298,-17.58779
-0.06518555,1.045166,-0.06103516,24.05343,250.1298,1.480916
0.2875977,0.9914551,0.002197266,15.51145,96.25191,-26.50382
0.1738281,0.9094238,-0.3493652,-15.21374,-4.290076,-75.89313
-0.5075684,0.9743652,-0.1655273,-11.33588,-11.36641,-16.19084
-0.3977051,0.9726563,0.007568359,-9.206107,4.29771,19.32825
0.03955078,0.9528809,-0.0144043,1.694656,-11.25954,20.48092
0.1032715,1.016602,0.008300781,7.022901,-18.63359,19.83206
0.1411133,0.9543457,-0.1750488,5.282443,-18.78626,20.91603
0.1687012,0.9592285,-0.2756348,0.3969466,-5.458015,21.0458
0.1777344,0.9672852,-0.2028809,-5.587786,2.129771,9.862596
0.1833496,0.9770508,-0.1083984,-6.648855,0.2824428,-3.580153
0.07275391,1.001709,-0.02124023,0.7175572,-1.870229,-2.549618
0.05297852,0.9765625,-0.06884766,3.015267,-1.687023,-1.221374
0.05151367,0.9685059,-0.1657715,3.694656,-1.274809,0.5801527
0.078125,0.9741211,-0.2045898,0.259542,-0.7709923,0.351145
0.08520508,0.970459,-0.1960449,-3.648855,-0.09923664,0.1908397
0.07910156,0.9807129,-0.08422852,-2.251908,-0.5877862,0.6793893
0.09277344,0.9814453,-0.08032227,1.320611,-0.5877862,0.3587786
0.09399414,0.9755859,-0.1308594,1.648855,-0.8244275,-0.06870229
0.07714844,0.9746094,-0.175293,-1.183206,-0.6412213,-0.06870229
-eTwist-,-e-,-e-,-e-,-e-,-e-
-sTwist-,-s-,-s-,-s-,-s-,-s-
0.07861328,0.972168,-0.1308594,-0.5877862,-0.5877862,0.3816794
0.08203125,0.9770508,-0.1660156,-3.0,-0.5725191,0.3587786
0.07739258,0.9707031,-0.1494141,-1.351145,-0.5267176,0.1832061
0.07641602,0.956543,-0.1323242,-1.427481,-89.51145,33.19084
0.2375488,0.65625,-0.2390137,-9.114504,-150.1069,-56.60305
-0.08276367,1.073975,-0.004394531,0.7022901,-248.1832,-2.931298
-0.2592773,1.013916,-0.0144043,-18.50382,-163.4198,-7.145038
0.1774902,0.8635254,-0.362793,-18.52672,-248.1832,-17.12977
-0.1940918,1.053711,-0.002685547,-4.557252,-248.1832,37.82443
0.09033203,0.9958496,-0.05322266,-25.78626,-213.3588,-6.992366
0.1806641,0.8383789,-0.3376465,-6.351145,-248.1832,-22.53435
-0.1838379,1.142334,-0.04174805,-1.29771,-248.1832,29.77863
0.1660156,0.8432617,-0.253418,-25.45802,-248.1832,-6.129771
-0.1845703,1.103516,-0.1137695,-21.27481,-40.92366,-45.32824
-0.7705078,0.9370117,0.1489258,-0.5114504,103.7176,59.47328
-0.06762695,1.015381,0.00390625,26.38168,250.1298,13.00763
0.3684082,0.8303223,-0.1843262,26.0,226.229,-14.90076
-0.08129883,1.060547,-0.06152344,30.13741,250.1298,-6.679389
0.2687988,0.8991699,-0.2763672,12.61832,250.1298,-22.63359
0.1408691,1.026123,-0.284668,11.64122,248.8779,-12.00763
-0.1601563,0.9975586,-0.03662109,12.70992,250.1298,-3.694656
0.6257324,0.9614258,-0.2302246,7.305344,237.9313,-22.93893
-0.2346191,1.025146,-0.01977539,17.87786,250.1298,21.79389
0.3249512,1.040771,-0.2255859,7.427481,250.1298,-30.48855
-0.01074219,0.996582,-0.2490234,26.77863,218.6412,48.93893
1.09375,1.025146,-0.008300781,5.870229,17.65649,-15.61069
-0.09936523,0.8310547,-0.2958984,-6.671756,-44.24427,-13.22137
-0.1333008,0.9577637,-0.2307129,-9.106871,-57.87786,1.251908
-0.1677246,0.9729004,-0.1174316,-12.50382,5.427481,2.007634
-0.05908203,0.9741211,-0.05664063,3.290076,0.2977099,27.1145
0.2062988,1.014648,-0.0390625,4.160306,-0.5038168,12.94656
0.1848145,0.9074707,-0.2155762,-2.251908,1.374046,6.549618
0.2644043,0.9353027,-0.201416,-2.969466,-0.2137404,-5.793893
0.1516113,0.9824219,-0.1223145,-1.435114,-1.229008,-8.068703
0.03881836,1.003174,-0.07324219,0.3282443,-2.076336,-4.38168
0.005126953,0.982666,-0.09936523,2.10687,-1.198473,-0.1526718
0.03710938,0.9692383,-0.1606445,1.687023,-0.3053435,1.931298
0.09912109,0.9699707,-0.197998,-0.8778625,-0.5648855,1.885496
0.1206055,0.9814453,-0.1186523,-3.519084,-0.5801527,-0.9007633
0.0847168,0.9804688,-0.07788086,-0.3053435,-0.740458,-0.4961832
0.06420898,0.9838867,-0.1105957,1.694656,-0.7633588,0.5343512
0.07910156,0.9746094,-0.1525879,1.076336,-0.351145,0.7175572
0.09960938,0.967041,-0.1708984,-1.923664,-0.2900764,0.0610687
-eTwist-,-e-,-e-,-e-,-e-,-e-
-sTwist-,-s-,-s-,-s-,-s-,-s-
0.08886719,0.9750977,-0.1269531,-0.259542,-0.6641222,0.4351145
0.09448242,1.047363,-0.01489258,2.908397,-0.4885496,0.5877862
0.06567383,0.9663086,-0.1499023,-2.931298,-1.229008,-1.022901
0.7963867,1.0271,-0.2163086,-5.015267,-126.8321,-20.83206
0.1162109,0.9858398,-0.1657715,-11.62595,-225.0534,-33.10687
-0.2741699,0.9926758,-0.1433105,-14.40458,-181.5802,-24.80916
0.1010742,0.9367676,-0.293457,-15.45802,-248.1832,-20.70229
-0.1999512,0.9624023,-0.1098633,-14.79389,-248.1832,34.45038
0.1201172,1.053223,0.1010742,-16.77863,-248.1832,-2.19084
0.1259766,0.9372559,-0.09741211,-8.877863,-248.1832,9.557252
-0.1159668,1.138916,0.07495117,-3.145038,-248.1832,35.44275
0.1967773,0.8793945,-0.2546387,-20.38168,-248.1832,-21.12214
-0.07543945,0.9536133,-0.2675781,-15.8626,-248.1832,-20.37405
0.03271484,0.96875,-0.2380371,-38.0,-222.3206,-18.80153
-0.3674316,0.9404297,-0.1745605,-19.27481,98.83206,-42.77863
-0.3259277,0.9890137,-0.2988281,4.068702,171.8779,46.37405
0.0534668,1.135498,0.3632813,27.03053,210.7023,63.87786
0.5004883,0.9541016,-0.09277344,8.091603,239.1069,3.755725
0.3769531,0.9074707,-0.1757813,30.19847,204.313,-0.4732824
-0.02685547,1.122559,-0.01513672,30.35114,250.1298,-2.816794
0.4077148,0.8930664,-0.2929688,19.42748,240.5802,-19.32825
-0.06469727,1.005615,-0.284668,23.13741,245.1603,-17.33588
-0.02539063,0.9650879,-0.1337891,16.54962,250.1298,-21.90076
0.3120117,0.9975586,-0.1931152,12.73282,236.5573,-20.87786
-0.06933594,1.082031,0.07177734,21.45038,228.0458,-8.984733
0.1611328,1.040527,-0.1262207,14.25954,159.855,-9.664123
0.3984375,0.8967285,-0.3483887,2.725191,-27.25954,-21.76336
-0.2770996,0.9465332,-0.3659668,-9.480916,-6.80916,-21.08397
-0.2316895,0.9470215,-0.0859375,-11.21374,-27.9313,19.38168
0.1035156,0.9453125,-0.09448242,-7.290076,-54.69466,18.25191
0.1118164,0.9997559,-0.05297852,-1.778626,-61.69466,8.351145
-0.144043,0.9973145,0.02050781,3.473282,8.068703,30.59542
0.2067871,0.8994141,-0.1933594,-0.9541985,3.129771,29.43511
0.3334961,0.9797363,-0.1821289,0.5725191,-6.068702,-3.687023
0.232666,0.9931641,-0.09912109,-1.770992,-4.854962,-9.312977
0.01831055,0.9538574,-0.09423828,-2.099237,-1.068702,-6.305344
0.007080078,0.9807129,-0.09399414,2.503817,-0.870229,-2.206107
0.03393555,0.9838867,-0.1462402,3.435115,-1.572519,0.5725191
0.05957031,0.9746094,-0.1923828,0.389313,-0.8854962,1.610687
0.07592773,0.9755859,-0.1186523,1.946565,-0.6641222,0.04580153
0.07983398,0.9699707,-0.1652832,0.6793893,-0.5572519,0.3664122
0.08544922,0.9724121,-0.1689453,-2.167939,-0.3664122,0.4351145
0.08300781,0.9768066,-0.1315918,-3.137405,-0.3587786,0.1984733
-eTwist-,-e-,-e-,-e-,-e-,-e-
-sTwist-,-s-,-s-,-s-,-s-,-s-
0.09204102,0.9758301,-0.1315918,-0.7251908,-0.7022901,-0.1068702
0.07666016,0.982666,-0.1789551,-3.21374,-0.351145,0.389313
0.08398438,0.9626465,-0.1569824,-2.236641,-3.137405,-0.1374046
0.05639648,0.9057617,-0.1240234,-0.7099237,-68.9542,-13.36641
0.2907715,0.890625,-0.3173828,-10.27481,-194.374,-20.84733
0.2036133,0.9372559,-0.3571777,-23.87786,-241.0763,-58.0687
-0.3664551,0.8920898,-0.01196289,-10.82443,-247.6565,7.61832
-0.1020508,1.022705,-0.03393555,-17.41985,-234.5802,13.58015
0.1013184,0.9389648,-0.2797852,-20.9542,-248.1832,-5.78626
-0.2321777,1.01416,0.05883789,-4.709924,-248.1832,38.58779
0.1462402,0.9086914,-0.06347656,-18.1145,-248.1832,4.664122
0.3896484,0.873291,-0.4960938,-17.93893,-248.1832,-9.938931
-0.1193848,1.071045,-0.03979492,-6.70229,-248.1832,26.21374
0.04052734,0.8291016,-0.04125977,-28.71756,-248.1832,-5.335878
-0.2434082,1.086914,0.09716797,-14.42748,-37.25954,-35.48092
-0.9694824,0.9724121,0.3273926,12.73282,137.2672,64.92367
0.08618164,1.061768,0.2927246,5.900764,221.374,60.9542
0.2915039,0.8330078,-0.06396484,12.31298,188.7176,24.39695
0.1970215,1.110596,0.09228516,34.25191,224.313,11.61069
0.01782227,0.895752,0.0078125,25.74809,250.1298,3.526718
0.519043,0.9179688,-0.3637695,27.42748,234.8015,-12.64886
-0.00390625,0.9987793,-0.1401367,22.0458,250.1298,-12.07634
0.2651367,1.032959,-0.1506348,19.49618,250.1298,-14.48092
0.2302246,1.021973,-0.09399414,16.12214,247.6641,-11.79389
0.2827148,0.9716797,-0.08178711,10.19847,70.87786,-33.29008
0.3391113,0.9282227,-0.3876953,-5.732824,-23.00763,-49.80153
-0.2932129,0.9797363,-0.2841797,-13.25191,-15.21374,-41.74809
-0.6662598,0.9555664,-0.02124023,-8.358779,-0.2137404,20.74809
0.06591797,1.00293,0.01367188,1.183206,-15.9771,21.51145
0.1162109,0.9819336,-0.06958008,5.305344,-27.0229,20.58015
0.1586914,0.9487305,-0.2080078,2.076336,-35.64122,23.50382
0.1584473,0.9709473,-0.2612305,-3.358779,-8.015267,16.41221
0.1938477,0.9736328,-0.1674805,-6.633588,2.625954,5.175572
0.1652832,0.994873,-0.06494141,-4.832061,-0.09160305,-3.832061
0.06225586,0.970459,-0.04003906,0.9770992,-2.717557,-2.938931
0.05004883,0.989502,-0.09350586,5.145038,-2.519084,-1.389313
0.05981445,0.9702148,-0.1760254,2.70229,-1.580153,-0.5496183
0.07202148,0.9655762,-0.2116699,-0.8931297,-0.7938931,-0.4732824
0.07421875,0.9863281,-0.1604004,-3.793893,-0.4656488,0.04580153
0.0612793,0.9899902,-0.09423828,-3.21374,-0.6870229,0.961832
0.08007813,0.9748535,-0.08300781,-0.05343511,-0.8549618,0.7938931
0.09814453,0.9816895,-0.1079102,1.725191,-0.7099237,0.03053435
0.09204102,0.9746094,-0.1513672,1.083969,-0.7633588,-0.5419847
-eTwist-,-e-,-e-,-e-,-e-,-e-
-sTwist-,-s-,-s-,-s-,-s-,-s-
0.08105469,0.9758301,-0.1196289,-0.6030535,-0.5038168,0.2061069
0.07275391,0.9265137,-0.1171875,1.015267,-1.374046,0.3435115
0.09741211,1.026611,-0.1135254,-0.09160305,-1.038168,1.251908
0.09619141,1.005371,-0.111084,-0.2290076,-2.19084,0.8549618
0.9516602,1.071045,-0.2421875,-5.480916,-173.9924,-35.05344
-0.03295898,0.9841309,-0.2963867,-16.08397,-236.0076,-45.74046
-0.3166504,0.958252,-0.07763672,-16.09924,-184.4427,-19.0229
0.07299805,0.9221191,-0.3327637,-25.32825,-223.5649,-29.85496
-0.2585449,0.9812012,0.05639648,-4.206107,-248.1832,54.93893
0.05004883,1.073975,0.1252441,-23.24427,-228.9466,-12.29008
0.1152344,0.9050293,-0.1943359,-1.183206,-248.1832,14.82443
-0.1445313,1.223145,0.1311035,-5.755725,-224.9084,14.74809
1.388916,1.080078,-0.3242188,-10.77099,-248.1832,-19.21374
-0.2028809,1.055908,-0.1003418,-5.015267,-124.1069,-13.36641
-0.5925293,0.8640137,0.07202148,-8.099236,145.8779,50.73283
0.1252441,0.9182129,-0.1032715,-9.160305,250.1298,39.06107
0.1862793,0.809082,0.03662109,19.8855,199.0458,62.30534
0.5632324,1.088623,0.284668,28.0458,234.5802,9.320611
0.2346191,0.9973145,-0.2614746,19.30534,250.1298,-16.72519
0.6911621,1.081055,-0.09912109,18.56489,226.7634,-19.0687
0.3464355,1.001953,-0.1086426,8.931297,162.6488,-30.87786
-0.1462402,0.9638672,-0.1872559,1.541985,215.5114,-46.70229
-0.2602539,1.023926,-0.02001953,19.77099,207.5114,19.92366
0.1330566,1.0271,-0.1323242,6.847328,250.1298,-37.54198
-0.168457,0.9160156,-0.2321777,17.22901,201.1756,53.98473
0.3422852,1.187988,-0.1018066,8.236641,34.43512,-5.709924
-0.1286621,0.8566895,-0.2453613,-9.580153,-52.93893,-7.061069
-0.1330566,0.9763184,-0.2749023,-10.89313,-65.80916,6.053435
-0.1557617,0.9814453,-0.0793457,-10.0,12.23664,3.473282
-0.02832031,0.9528809,-0.05859375,-0.7480916,3.603053,28.16031
0.2734375,1.031006,-0.07739258,3.29771,-4.78626,9.793893
0.2272949,0.9694824,-0.1345215,-0.8778625,-1.229008,0.961832
0.2185059,0.9345703,-0.1589355,-1.572519,0.2900764,-6.854962
0.1279297,0.9760742,-0.1291504,-0.5419847,-1.412214,-7.664122
0.01879883,1.003418,-0.07592773,1.221374,-1.847328,-4.007634
0.009033203,0.9902344,-0.1201172,2.221374,-1.183206,0.8244275
0.05419922,0.9692383,-0.1767578,-0.04580153,-0.351145,2.290076
0.1032715,0.9675293,-0.1870117,-2.603053,-0.3206107,1.0
0.1237793,0.980957,-0.126709,-3.396947,-0.6641222,-0.2748091
0.09277344,0.9814453,-0.08129883,-1.198473,-0.8473283,-0.5725191
0.06347656,0.9816895,-0.09301758,1.083969,-0.6564885,0.1221374
0.06884766,0.9692383,-0.1479492,1.068702,-0.4732824,0.9541985
0.09228516,0.9750977,-0.168457,-1.10687,0.01526718,0.5572519
-eTwist-,-e-,-e-,-e-,-e-,-e-
-sTwist-,-s-,-s-,-s-,-s-,-s-
0.08618164,0.9731445,-0.1499023,-0.7709923,-0.259542,0.09160305
0.08666992,0.9782715,-0.1882324,-1.877863,-0.7480916,0.5648855
0.0715332,0.9467773,-0.1330566,-1.007634,0.832061,-0.2061069
0.1013184,1.005615,-0.1037598,2.160305,-2.061069,-0.6335878
0.668457,1.037109,-0.02978516,-0.01526718,-142.8015,-19.83969
0.2087402,0.9536133,-0.1479492,-11.70229,-225.2519,-34.03053
-0.2758789,0.9812012,-0.1206055,-12.25191,-192.3359,-10.32061
0.09594727,0.9338379,-0.2324219,-19.35878,-248.1832,-25.77863
-0.2038574,0.8886719,0.06494141,-10.63359,-248.1832,38.32824
0.1425781,1.118896,-0.123291,-22.54962,-248.1832,-0.8015267
-0.03808594,0.8901367,-0.1054688,-9.496183,-248.1832,21.64886
0.2165527,0.9992676,-0.008789063,-5.38168,-248.1832,5.603054
-0.09838867,0.7583008,-0.2182617,-27.26718,-248.1832,-13.98473
-0.2290039,1.011475,-0.2675781,-17.50382,-40.12214,-42.55725
-1.009033,1.026855,0.2346191,10.07634,109.1985,79.03817
0.06030273,1.007568,0.3378906,-6.038168,229.7481,57.0687
0.46875,0.7587891,-0.2333984,7.129771,185.5649,2.389313
0.3723145,1.197266,0.1899414,37.75573,180.5343,3.648855
-0.1132813,0.958252,0.1413574,22.99237,250.1298,1.099237
1.022705,0.9196777,-0.373291,32.41985,219.0611,-12.66412
0.03540039,1.026367,-0.222168,26.57252,250.1298,-5.603054
0.2753906,0.9274902,-0.3334961,11.12214,250.1298,-23.83206
0.07177734,1.010986,-0.2143555,17.64122,231.2061,-18.29771
0.3007813,1.013672,-0.08862305,5.862596,168.3282,-30.03053
-0.2299805,0.9196777,-0.09521484,8.549619,133.8244,5.282443
0.01855469,0.9853516,-0.2380371,3.083969,-16.84733,-11.41221
-0.2631836,0.9418945,-0.2700195,-8.290076,-7.580153,-4.78626
-0.1254883,0.9892578,-0.08325195,-6.564886,-37.67939,25.08397
0.152832,0.9782715,-0.08789063,-5.755725,-66.28244,19.60305
-0.1271973,0.9772949,0.06616211,0.1679389,21.34351,27.76336
0.2045898,0.8740234,-0.2519531,-4.587786,13.29008,5.969466
0.2971191,0.9807129,-0.189209,0.4198473,2.763359,0.389313
0.3168945,1.03833,-0.09277344,0.7633588,-2.022901,-10.24428
0.1313477,0.9675293,-0.08447266,-2.152672,-3.099237,-10.19847
0.01342773,0.9685059,-0.1005859,0.4351145,-1.587786,-4.51145
0.01147461,0.9775391,-0.1293945,3.435115,-1.679389,-0.6717557
0.03295898,0.9892578,-0.177002,2.480916,-1.152672,2.152672
0.07275391,0.9682617,-0.1987305,-2.305344,-0.4045802,2.167939
0.1169434,0.9658203,-0.1467285,-4.854962,-0.2519084,0.5801527
0.1228027,0.9814453,-0.08056641,-2.175573,-0.5801527,-0.7022901
0.08789063,0.9833984,-0.07202148,1.160305,-0.5954198,-0.7328244
0.06884766,0.9785156,-0.1286621,2.122137,-0.8015267,0.1526718
0.08764648,0.9841309,-0.1118164,1.29771,-0.8778625,0.1450382
-eTwist-,-e-,-e-,-e-,-e-,-e-
-sTwist-,-s-,-s-,-s-,-s-,-s-
0.07568359,0.9765625,-0.1296387,-1.068702,-0.7328244,0.4274809
0.08520508,0.9943848,-0.1523438,-2.732824,-0.5648855,0.7557252
0.0949707,0.9360352,-0.1567383,-2.351145,-0.4656488,-0.2290076
0.581543,0.9626465,-0.378418,-8.648855,-136.2595,-16.56489
0.1987305,0.9421387,-0.02880859,-9.931297,-247.0153,-28.01527
-0.2683105,0.9484863,-0.1662598,-16.29771,-212.8015,-5.076336
0.08081055,0.9399414,-0.3569336,-27.52672,-229.9008,-34.26717
-0.07055664,0.9414063,-0.1391602,-11.45038,-248.1832,33.36641
-0.09619141,1.101074,0.2619629,-12.9771,-247.771,6.961832
0.4741211,1.0,0.01513672,-6.343512,-248.1832,6.282443
0.2814941,0.8486328,-0.3200684,-16.70229,-248.1832,-14.96947
-0.1779785,0.9467773,-0.2067871,-11.50382,-248.1832,0.1679389
0.0949707,0.7521973,-0.2868652,-38.51145,-248.1832,-22.22901
-0.2900391,1.030273,-0.2312012,-16.0,-12.35878,-45.00763
-1.168457,1.03833,0.2009277,12.27481,146.6412,69.8168
0.1452637,1.085449,0.4833984,26.52672,196.3664,63.16794
0.5817871,0.9526367,0.04492188,14.61832,243.0611,13.39695
0.5053711,0.9145508,-0.206543,28.03817,200.2061,-0.4732824
-0.06445313,1.106934,0.08300781,34.76336,250.1298,20.40458
0.2749023,0.8295898,-0.2971191,20.51145,220.5496,-15.80153
-0.078125,0.9577637,-0.1574707,26.48092,250.1298,-12.58779
0.3474121,0.8981934,-0.2944336,10.25954,189.313,-27.58015
0.06494141,0.9179688,-0.2346191,4.984733,121.2595,-26.74046
-0.3901367,1.12085,0.09423828,11.12214,250.1298,-8.450381
0.1464844,0.7792969,-0.2458496,-0.480916,147.5114,24.91603
1.009033,1.169434,-0.3081055,10.93893,10.41985,-19.18321
-0.2387695,1.040527,-0.2473145,-6.610687,-0.09160305,-18.68702
-0.2009277,0.940918,-0.1125488,-9.900764,-19.16031,19.70992
0.08178711,0.998291,-0.06298828,-1.083969,-37.55725,20.25191
0.1149902,0.9758301,-0.07470703,-0.9465649,-50.60305,15.81679
0.1323242,0.9794922,-0.1777344,-1.923664,-39.40458,9.862596
0.005859375,0.9890137,-0.1464844,-0.8625955,10.56489,19.12977
0.451416,0.9660645,-0.1159668,-2.908397,-6.61832,-5.038168
0.1147461,0.9536133,-0.1081543,-2.435115,-2.030534,-6.854962
0.04663086,0.9604492,-0.1037598,1.419847,-1.633588,-4.473282
0.05273438,0.9885254,-0.1230469,3.114504,-2.091603,-2.267176
0.04321289,0.9794922,-0.1674805,1.40458,-1.641221,-0.4503817
0.04345703,0.9711914,-0.1787109,-2.633588,-0.5877862,1.206107
0.06665039,0.9755859,-0.152832,-3.51145,-0.2977099,1.633588
0.09790039,0.9863281,-0.08789063,-1.954198,-0.4274809,1.015267
0.1037598,0.9772949,-0.08935547,-0.2824428,-0.6793893,0.06870229
0.09765625,0.9729004,-0.1347656,1.167939,-0.9236641,-0.4732824
0.08032227,0.9729004,-0.1564941,0.2213741,-0.5877862,-0.6030535
-eTwist-,-e-,-e-,-e-,-e-,-e-
-sTwist-,-s-,-s-,-s-,-s-,-s-
0.08398438,0.9780273,-0.126709,-0.6030535,-0.5877862,0.2519084
0.08081055,1.000488,-0.1384277,-1.541985,-0.961832,0.7709923
0.07446289,0.9492188,-0.1196289,-2.068702,-0.259542,-0.07633588
0.09545898,0.9658203,-0.1477051,-1.916031,-0.9541985,0.1374046
0.5446777,0.956543,-0.04418945,-0.7251908,-145.2519,-18.82443
0.3869629,1.004395,-0.1975098,-14.67176,-224.6488,-53.17557
-0.2739258,1.015381,-0.1574707,-14.38168,-240.2748,6.038168
0.01196289,1.013428,-0.1135254,-22.20611,-248.626,-31.81679
-0.3474121,0.9431152,0.05810547,-9.251908,-248.1832,37.26717
0.1193848,1.005127,-0.1054688,-18.9313,-247.6794,4.679389
0.1652832,0.8271484,-0.2094727,-2.572519,-248.1832,0.1832061
-0.1572266,1.062744,-0.05004883,0.3358779,-248.1832,31.48092
-0.1340332,1.047607,-0.007568359,-9.610687,-248.1832,8.389313
0.5019531,0.9101563,-0.1772461,-31.9771,-248.1832,-28.77863
-0.2280273,1.072021,-0.1015625,-16.51908,-20.90076,-41.69466
-1.019531,0.9709473,0.2810059,1.282443,121.1298,62.61069
0.07788086,0.9284668,0.2009277,8.114504,220.7405,50.78626
0.4030762,0.864502,-0.1496582,15.42748,185.0458,25.71756
0.09204102,1.076172,0.06713867,30.52672,220.7634,9.091603
0.02392578,0.8317871,-0.107666,22.46565,250.1298,-1.229008
0.8183594,0.9941406,-0.1533203,32.9542,225.4657,-14.96947
0.02319336,1.063965,-0.1337891,24.64886,250.1298,-5.198473
0.185791,0.8476563,-0.1286621,1.076336,204.1221,-12.41985
-0.3117676,0.9453125,0.02783203,18.62595,240.6718,22.89313
0.1755371,0.9943848,-0.1691895,3.160305,99.06107,61.99237
1.243164,0.9189453,-0.2861328,-0.1832061,-40.51145,-8.694656
-0.2055664,0.9794922,-0.1269531,-5.587786,-13.31298,3.396947
-0.04711914,0.9594727,-0.09448242,-6.656488,-23.58779,16.54198
0.1281738,0.9929199,-0.08789063,-4.59542,-40.77863,12.43511
0.1074219,0.9677734,-0.1066895,-2.29771,-36.94656,10.35878
0.09619141,0.973877,-0.1298828,-0.6717557,-9.870229,8.435115
0.192627,0.9714355,-0.1462402,-0.7175572,-0.6259542,1.839695
0.1757813,0.9526367,-0.1486816,-1.770992,-0.5114504,-4.740458
0.1413574,0.9755859,-0.1115723,-0.5114504,-1.992366,-6.938931
0.05151367,0.9841309,-0.1000977,1.503817,-3.381679,-4.335878
0.02099609,0.9726563,-0.1374512,1.679389,-1.48855,-1.389313
0.03295898,0.9731445,-0.1708984,0.1526718,-0.4885496,0.9465649
0.06201172,0.973877,-0.1799316,-1.862595,-0.5725191,2.061069
0.1010742,0.9804688,-0.1264648,-2.70229,-0.4198473,1.557252
0.1086426,0.9799805,-0.09692383,-1.557252,-0.5267176,-0.1221374
0.1020508,0.9814453,-0.109375,0.6564885,-0.6641222,-0.740458
0.07714844,0.9802246,-0.1318359,0.5267176,-0.6870229,-0.2366412
0.0715332,0.9724121,-0.159668,-0.3664122,-0.5725191,0.3053435
-eTwist-,-e-,-e-,-e-,-e-,-e-
-sTwist-,-s-,-s-,-s-,-s-,-s-
0.0871582,0.9733887,-0.1306152,-1.198473,-0.3664122,0.3206107
0.08349609,0.9958496,-0.1469727,-2.389313,-0.7557252,0.8931297
0.08740234,0.9536133,-0.1274414,-2.038168,-0.4732824,-0.4045802
0.1098633,0.9562988,-0.1481934,-1.641221,-0.7480916,0.1832061
0.7155762,0.9672852,-0.3452148,-5.61832,-135.8931,-25.86259
0.3232422,1.034912,-0.1628418,-8.641221,-248.1832,-31.0916
-0.3100586,0.9853516,-0.07861328,-22.35114,-170.1374,-34.03817
0.09423828,0.8435059,-0.4660645,-24.78626,-248.1832,-32.0458
-0.4416504,1.077881,0.1030273,-8.854961,-248.1832,50.15267
0.135498,0.9284668,0.03100586,-30.80153,-248.1832,-1.068702
0.1103516,0.9880371,-0.1303711,3.847328,-248.1832,-9.557252
-0.145752,1.150146,0.161377,-11.84733,-248.1832,26.22901
0.0004882813,0.8049316,-0.3857422,-29.70992,-248.1832,-12.9542
-0.2980957,1.0625,-0.2480469,-13.26718,-45.64885,-25.29008
-0.8149414,1.00415,0.2705078,4.099236,122.8931,58.25954
0.2155762,0.8347168,-0.05395508,15.84733,189.8702,57.57252
0.1328125,1.079346,0.1784668,27.44275,229.4427,9.38168
0.2692871,0.8588867,-0.1564941,21.44275,250.1298,-0.2519084
0.7663574,0.9953613,-0.1333008,42.83969,228.5649,-11.8855
0.1499023,1.002441,-0.206543,24.34351,236.4962,-16.39695
0.1174316,0.9243164,-0.3212891,20.9084,232.2901,-19.32825
0.3127441,0.9455566,-0.3991699,8.885496,169.0229,-34.19084
0.1569824,0.9938965,-0.2172852,2.022901,213.1069,-57.87786
-0.1115723,0.9558105,-0.03491211,13.35114,175.7786,10.19084
0.1416016,1.044922,0.05957031,6.778626,33.73283,7.503817
-0.06030273,0.9555664,-0.1730957,-2.206107,-8.40458,-33.96947
-0.2578125,0.9572754,-0.1474609,-6.038168,-11.9084,-3.564885
-0.1398926,0.9914551,-0.04199219,-2.916031,-28.0229,22.28244
0.1074219,0.9858398,-0.07128906,1.167939,-42.12977,19.25191
0.1257324,0.9875488,-0.1362305,2.473282,-40.59542,14.23664
0.04272461,0.9807129,-0.1762695,-0.3740458,8.030535,17.32061
0.1845703,0.8994141,-0.1870117,-6.160306,4.030534,18.16794
0.4829102,1.025391,-0.06152344,-1.679389,-7.877862,-7.030534
0.06079102,1.012451,-0.04736328,0.6564885,-3.152672,-4.877862
0.01733398,0.9638672,-0.1005859,2.022901,-0.6717557,-2.160305
0.05371094,0.9711914,-0.1647949,2.48855,-0.4351145,-0.519084
0.07275391,0.9831543,-0.1806641,-0.5877862,-1.458015,0.2137404
0.07250977,0.9785156,-0.1508789,-3.022901,-0.8396947,0.8473283
0.07543945,0.9736328,-0.1123047,-3.0,-0.5114504,0.870229
0.08325195,0.9772949,-0.09155273,-0.832061,-0.2061069,0.7557252
0.09545898,0.9802246,-0.1164551,1.564886,-0.4503817,-0.1984733
0.0871582,0.9748535,-0.1491699,0.9083969,-0.4961832,-0.5038168
0.07055664,0.9709473,-0.1660156,-1.603053,-0.5267176,-0.04580153
-eTwist-,-e-,-e-,-e-,-e-,-e-
-sTwist-,-s-,-s-,-s-,-s-,-s-
0.08007813,0.9799805,-0.1411133,-0.5038168,-0.5648855,0.3816794
0.08105469,0.9602051,-0.1396484,-1.091603,-0.4198473,0.007633588
-0.2041016,0.9494629,-0.1352539,-13.29771,-248.1832,2.198473
-0.3972168,1.052979,0.3063965,-9.435115,-248.1832,37.54198
0.1535645,0.888916,-0.2409668,-30.0916,-248.1832,-8.78626
-0.07958984,0.9450684,-0.08691406,-0.1450382,-248.1832,42.70992
0.0534668,1.125488,-0.1218262,-17.83969,-225.229,-3.984733
0.5908203,1.068115,-0.4902344,-15.0229,-248.1832,-12.18321
-0.1428223,1.140381,-0.08544922,-5.412214,-248.1832,12.05344
0.4611816,0.7497559,-0.2983398,-25.01527,-248.1832,-33.65649
-0.08691406,1.066406,-0.02905273,-14.75572,-248.1832,12.16031
-0.06982422,0.9916992,-0.003417969,-40.46565,-248.1832,-9.099236
0.5561523,1.02417,-0.3205566,-18.96183,-248.1832,-13.80916
-0.1342773,1.124512,0.1154785,-18.83206,-146.7939,-35.26717
-0.5866699,0.9699707,0.1726074,-0.05343511,121.1374,39.34351
0.1657715,0.9628906,0.02099609,12.84733,215.626,38.1145
0.2126465,0.8847656,-0.1862793,10.29771,232.4351,30.91603
0.3295898,1.018555,-0.2307129,27.83969,239.1603,11.25954
0.07006836,1.09668,0.01660156,26.82443,250.1298,5.763359
0.2775879,0.9106445,-0.02246094,17.72519,220.9771,-14.64122
0.2856445,0.9116211,-0.2504883,19.54198,159.3664,-24.51908
0.1523438,1.044678,-0.1206055,10.32061,195.0,-32.58015
-0.1411133,1.014893,-0.1237793,17.36641,241.0992,-4.763359
-0.08959961,1.010742,0.001464844,20.08397,250.1298,12.85496
0.246582,0.894043,-0.05761719,14.84733,100.6031,-24.85496
0.5578613,0.7910156,-0.6342773,-18.58015,-56.25191,-59.38931
-0.4055176,0.9411621,-0.2236328,-16.74809,-26.83969,-14.89313
-0.4829102,0.9550781,0.002685547,-13.96183,6.221374,20.89313
0.06323242,0.9975586,0.0546875,1.030534,-1.938931,19.31298
0.1259766,0.998291,0.05395508,6.267176,-7.419847,22.41221
0.1257324,0.9619141,-0.1079102,9.61832,-4.793893,22.33588
0.1555176,0.9807129,-0.2258301,7.839694,0.519084,12.31298
0.1738281,0.9570313,-0.2836914,-1.21374,-0.04580153,3.526718
0.1477051,0.9731445,-0.2070313,-7.40458,-0.1832061,-2.328244
0.0715332,0.9973145,-0.07080078,-6.236641,-0.1984733,-2.091603
0.04589844,0.9814453,-0.03442383,-1.244275,-0.7175572,-0.259542
0.05029297,0.9819336,-0.08105469,4.10687,-0.7709923,1.290076
0.06738281,0.9787598,-0.1689453,2.671756,-0.7480916,1.778626
0.08886719,0.9697266,-0.2033691,-2.045802,-0.1984733,0.9847328
0.09790039,0.9716797,-0.1520996,-4.374046,-0.389313,-0.2671756
0.08374023,0.982666,-0.08544922,-2.687023,-0.4961832,-0.3053435
0.0690918,0.9846191,-0.06469727,0.5725191,-0.740458,-0.2824428
0.06103516,0.9821777,-0.1149902,1.923664,-0.6412213,0.6946565
-eTwist-,-e-,-e-,-e-,-e-,-e-
-sTwist-,-s-,-s-,-s-,-s-,-s-
0.07275391,0.9790039,-0.1274414,-1.21374,-0.4045802,0.3435115
0.07495117,1.033203,-0.08081055,-0.1984733,-0.8244275,0.7022901
0.08081055,0.9526367,-0.107666,-0.6793893,-78.24428,16.87786
0.3278809,0.6499023,-0.465332,-18.89313,-199.0229,-52.86259
-0.2595215,1.059814,0.1074219,-3.870229,-248.9924,6.847328
-0.1486816,1.009277,-0.08666992,-28.63359,-172.5496,-12.33588
0.06494141,0.8527832,-0.2561035,-11.79389,-248.1832,5.679389
-0.1367188,1.080322,0.07128906,-4.610687,-248.1832,46.10687
-0.01586914,0.9675293,0.01782227,-26.80916,-219.145,-4.778626
0.2202148,0.8857422,-0.5834961,-14.0916,-248.1832,-9.541985
-0.1308594,1.088623,-0.1047363,-0.7022901,-248.1832,25.93893
0.04052734,0.833252,-0.2607422,-20.35878,-248.1832,0.09923664
0.5510254,1.078613,-0.1540527,-11.33588,-248.1832,-10.34351
-0.2473145,1.061279,0.2207031,-31.16031,-183.1908,-39.85496
-0.9013672,0.7856445,0.114502,-8.839695,48.90076,50.41221
0.1469727,1.146729,0.3430176,14.05344,170.1908,33.68702
-0.1015625,0.9790039,0.2353516,13.38168,239.6565,53.48855
0.1689453,0.7446289,-0.02563477,12.85496,214.0153,42.61069
0.4094238,1.058838,-0.02880859,36.22137,226.0687,6.885496
0.166748,0.9682617,-0.1784668,18.41985,250.1298,3.977099
0.4262695,0.9306641,-0.2617188,30.0229,235.1603,-10.01527
0.3242188,0.9960938,-0.1936035,15.61069,165.1069,-20.14504
0.06713867,0.9160156,-0.171875,8.061069,186.2595,-28.74046
-0.06591797,1.008545,-0.1867676,15.48855,216.0229,-9.709924
-0.1635742,1.004883,-0.08642578,13.51145,250.1298,-8.557252
0.03076172,1.0271,0.05908203,3.450382,-2.839695,20.68702
0.1125488,0.9589844,0.02368164,4.572519,-7.030534,24.80916
0.128418,0.9414063,-0.1293945,9.030535,-4.053435,25.65649
0.1489258,0.984375,-0.2285156,7.709924,2.007634,13.65649
0.1853027,0.951416,-0.2756348,-0.6259542,1.251908,3.351145
0.1633301,0.9768066,-0.2124023,-6.587786,-0.4961832,-3.10687
0.06762695,0.9733887,-0.07495117,-6.839694,-1.015267,-2.656489
0.03027344,0.9848633,-0.04541016,-1.396947,0.0,-0.5114504
0.04516602,0.989502,-0.06347656,3.694656,-0.9312977,1.10687
0.06347656,0.9729004,-0.1582031,3.343511,-0.7328244,1.70229
0.09448242,0.9675293,-0.1977539,-1.10687,-0.02290076,1.526718
0.1037598,0.9765625,-0.1711426,-3.335878,-0.1068702,0.2290076
0.09008789,0.9733887,-0.1164551,-3.221374,-0.3358779,-0.1984733
0.07519531,0.9855957,-0.06958008,-0.4732824,-0.9389313,-0.0610687
0.06347656,0.9841309,-0.1079102,1.977099,-0.6183206,0.4503817
0.06323242,0.9631348,-0.159668,0.2977099,-0.5801527,0.7938931
0.08032227,0.9702148,-0.168457,-1.358779,-0.4351145,0.7175572
0.08300781,0.9731445,-0.1137695,-2.80916,-0.519084,0.02290076
-eTwist-,-e-,-e-,-e-,-e-,-e-
-sTwist-,-s-,-s-,-s-,-s-,-s-
0.0793457,0.9775391,-0.1364746,-0.5954198,-0.5343512,0.1068702
0.0715332,1.00293,-0.07763672,0.1450382,-0.6183206,0.03816794
0.08374023,0.9746094,-0.1247559,-1.938931,-0.3969466,0.5801527
0.4377441,0.9663086,-0.2229004,-4.900764,-179.7405,-22.74809
-0.01855469,0.8242188,-0.3808594,-45.77863,-167.3588,-65.45802
-0.2578125,0.9321289,-0.2414551,2.40458,-248.1832,19.48855
-0.2104492,1.119873,0.05737305,-20.0916,-205.8244,13.25954
0.1164551,0.7841797,-0.3310547,-23.91603,-210.916,-26.61832
-0.1286621,1.054932,-0.002685547,7.801527,-248.1832,45.23664
0.1303711,1.143311,0.06787109,-23.44275,-212.7252,3.687023
0.3869629,0.885498,-0.4765625,-7.282443,-248.1832,-6.587786
-0.1130371,1.203369,0.142334,7.08397,-248.1832,9.709924
0.2294922,0.7792969,-0.2570801,-21.87786,-248.1832,-22.47328
-0.3007813,1.09375,0.07714844,-5.236641,0.07633588,-32.06107
-0.4638672,0.9543457,0.1047363,-6.496183,139.4886,54.64122
-0.02001953,0.9421387,0.2241211,9.38168,236.626,54.64885
0.1738281,0.8522949,-0.0004882813,14.22137,205.1527,39.45038
0.3862305,1.050781,-0.09814453,32.0916,220.2061,4.198473
-0.02929688,0.9248047,-0.1621094,21.0687,250.1298,11.69466
0.4267578,0.90625,-0.3010254,29.13741,243.7939,-9.473283
0.4726563,1.026367,-0.2080078,26.69466,167.0076,-21.59542
0.1132813,0.9367676,-0.1694336,8.664123,175.4427,-32.61832
-0.145752,1.005371,-0.166748,16.59542,222.1832,0.1832061
-0.1621094,0.9831543,-0.01513672,12.84733,250.1298,-17.83969
0.05957031,0.9333496,-0.1921387,13.65649,242.9847,-15.0687
1.15625,1.010742,-0.4956055,9.916031,-54.26717,-53.41221
-0.3845215,1.080566,-0.3649902,-21.10687,12.16794,-62.59542
-0.8522949,0.9697266,-0.02856445,-13.74046,13.21374,26.45038
0.07275391,1.093506,0.1311035,0.1374046,-3.160305,20.13741
0.09765625,0.9152832,-0.01953125,2.587786,-6.732824,24.91603
0.1086426,0.9804688,-0.0637207,10.8626,-6.465649,26.83206
0.144043,0.9848633,-0.2817383,5.70229,-1.412214,12.0916
0.2043457,0.9770508,-0.2702637,-3.274809,-1.068702,-1.061069
0.09838867,0.9782715,-0.1159668,-9.396947,-0.5038168,-3.129771
0.05297852,0.9841309,-0.01342773,-3.21374,0.1221374,-1.587786
0.046875,0.9814453,-0.03564453,2.007634,-1.167939,0.06870229
0.0456543,0.973877,-0.1171875,4.51145,-0.7022901,1.854962
0.0715332,0.9692383,-0.1958008,1.847328,-0.389313,1.992366
0.09228516,0.9699707,-0.1911621,-3.007634,-0.2061069,1.045802
0.1086426,0.9729004,-0.1340332,-4.450382,-0.3435115,-0.610687
0.078125,0.9777832,-0.07226563,-1.900763,-0.8473283,-0.7175572
0.05981445,0.9807129,-0.07714844,1.374046,-0.9465649,-0.3129771
0.06518555,0.9765625,-0.1325684,1.671756,-0.6793893,0.740458
-eTwist-,-e-,-e-,-e-,-e-,-e-
-sTwist-,-s-,-s-,-s-,-s-,-s-
0.08129883,0.9785156,-0.1181641,-1.396947,-0.610687,0.2824428
0.08081055,1.007813,-0.1518555,-2.282443,-1.358779,0.9923664
0.2990723,0.8881836,-0.1489258,-1.70229,-176.6336,-20.43511
-0.0007324219,0.7929688,-0.2475586,-37.34351,-157.2137,-57.70992
-0.295166,0.987793,-0.1782227,-3.877863,-222.9924,3.870229
-0.03076172,1.10376,-0.05981445,9.694656,-248.1832,1.885496
-0.1313477,0.8867188,0.03417969,-33.65649,-221.1221,-8.137404
0.8571777,1.010742,-0.5852051,-12.9313,-248.1832,-17.62595
-0.1650391,1.285156,-0.005615234,-20.83969,-236.7023,4.244275
0.6555176,0.9174805,-0.4692383,-30.37405,-248.1832,-20.65649
-0.05981445,1.108643,-0.1164551,-8.61832,-248.1832,12.26718
-0.09594727,1.09082,0.1279297,-37.57252,-241.8855,13.92366
1.047119,1.008301,-0.2412109,-20.80153,-248.1832,-17.73282
-0.2126465,1.317627,0.2841797,-27.9084,-86.54962,-53.10687
-0.9509277,0.8493652,0.1586914,-10.48855,98.59542,45.07634
0.09912109,0.923584,0.01416016,10.58779,211.229,30.83206
0.1640625,1.025635,0.1630859,28.86259,241.1527,53.0458
0.2270508,0.8981934,-0.1113281,13.57252,243.9924,33.96947
0.5551758,0.9838867,-0.3034668,35.29008,205.374,4.427481
0.3833008,1.020264,-0.1359863,23.1145,133.1679,-13.75572
0.09106445,0.9118652,-0.1809082,8.610687,170.3588,-23.78626
-0.1452637,0.9562988,-0.1503906,13.84733,237.0305,3.832061
0.03930664,1.006836,-0.08178711,16.64886,250.1298,4.755725
0.2780762,0.9470215,-0.1569824,15.29771,203.2901,-13.18321
0.3046875,0.9182129,-0.2080078,16.96183,150.3282,-27.9771
0.7770996,1.121826,-0.2312012,14.59542,-11.44275,-45.55725
-0.3320313,1.057861,-0.2758789,-11.63359,10.19084,-54.36641
-0.4931641,0.9003906,-0.2165527,-12.77099,3.083969,7.08397
-0.109375,1.014648,0.03808594,-8.442748,1.137405,20.9313
0.05737305,0.9790039,-0.002929688,0.8473283,0.4427481,26.35878
0.1098633,0.9667969,-0.04589844,4.503817,0.4732824,29.55725
0.2556152,0.9799805,-0.1499023,6.59542,-1.992366,15.05344
0.246582,0.9807129,-0.220459,1.312977,-3.076336,-1.671756
0.111084,0.9641113,-0.2011719,-3.083969,-0.9312977,-3.480916
0.03686523,0.9729004,-0.1303711,-5.061069,0.4732824,-2.19084
0.02978516,0.9929199,-0.04833984,-1.89313,-0.5114504,0.3053435
0.03881836,0.9816895,-0.06811523,1.160305,-0.8778625,1.763359
0.08007813,0.9724121,-0.1362305,2.877863,-0.2290076,1.442748
0.09985352,0.973877,-0.1745605,0.06870229,-0.519084,0.2366412
0.09008789,0.9748535,-0.1503906,-2.877863,-0.5114504,-0.7938931
0.05737305,0.979248,-0.078125,-0.4427481,-0.6641222,0.2824428
0.05834961,0.9807129,-0.09545898,1.908397,-0.7557252,1.152672
0.08984375,0.9743652,-0.1428223,0.5496183,-0.5725191,0.5572519
-eTwist-,-e-,-e-,-e-,-e-,-e-
-sTwist-,-s-,-s-,-s-,-s-,-s-
0.07275391,0.9799805,-0.1252441,-0.6870229,-0.7480916,0.2748091
0.08398438,1.018066,-0.1252441,-0.8549618,-1.290076,0.648855
0.06616211,0.9423828,-0.1328125,-0.8167939,0.740458,-0.3435115
0.9921875,1.066162,-0.4257813,-3.816794,-216.6183,-35.34351
-0.3242188,1.190674,-0.1359863,-23.67175,-112.1985,-64.00764
0.002441406,0.8286133,-0.3530273,-7.038168,-212.1832,-6.282443
-0.2468262,1.128662,0.2033691,-3.687023,-248.1832,30.9771
0.008300781,0.9487305,0.05639648,-29.99237,-208.4657,-19.63359
-0.001708984,0.8959961,-0.1447754,-4.59542,-248.1832,41.67176
0.04199219,1.187988,0.1660156,-11.81679,-203.1832,20.41985
0.5554199,0.8117676,-0.3920898,-14.65649,-221.0763,-11.9313
0.007324219,1.011719,-0.2805176,2.320611,-248.1832,-14.42748
-0.1821289,1.034912,0.362793,-31.01527,-184.6183,-15.76336
0.2067871,0.6589355,-0.5715332,-16.81679,-248.1832,-2.793893
-0.1503906,1.164551,0.1582031,-13.60305,-25.45802,-59.41221
-0.7045898,0.9372559,0.1699219,-3.763359,129.3817,47.96183
0.01953125,0.8942871,0.03930664,11.70992,236.5038,38.36641
0.1987305,1.012695,0.1960449,27.29008,224.7786,48.29771
0.2207031,0.9804688,0.1208496,20.9771,249.687,23.66412
0.4050293,0.9648438,-0.1530762,34.41221,216.6718,4.305344
0.5793457,1.0,-0.2814941,25.0916,105.0458,-17.80916
0.03417969,1.046631,-0.1564941,14.58015,175.1221,-23.07634
-0.185791,0.9025879,-0.03515625,17.12214,216.4962,8.099236
0.06176758,1.065918,-0.1015625,13.32061,250.1298,-0.2061069
0.2407227,0.9204102,-0.1584473,16.74046,153.3053,-15.80916
1.067139,0.7668457,-0.4455566,2.931298,-53.60305,-71.21374
-0.3718262,1.123779,0.04516602,-5.221374,22.16794,-60.13741
-0.6169434,0.8669434,-0.0690918,-12.05344,8.480916,4.839694
-0.1931152,0.9931641,-0.01489258,3.091603,-0.9770992,18.80916
0.002929688,1.029053,-0.03051758,8.572519,0.7175572,27.36641
0.1052246,1.000244,-0.08276367,-4.267176,-0.9007633,-3.374046
0.02612305,0.9919434,-0.07226563,1.137405,-0.1145038,-1.10687
0.01635742,0.9799805,-0.09912109,0.6259542,-0.6717557,2.137405
0.06713867,0.972168,-0.1486816,0.1984733,-0.9312977,2.114504
0.1027832,0.973877,-0.1608887,-1.442748,-0.4122138,0.5877862
0.09667969,0.9755859,-0.1274414,-2.198473,-0.6793893,-0.6793893
0.06762695,0.9758301,-0.1047363,-1.19084,-0.7175572,-0.4732824
0.05004883,0.980957,-0.1037598,0.1984733,-0.5267176,0.480916
0.05737305,0.9814453,-0.1162109,0.7099237,-0.4274809,0.7251908
0.0793457,0.9785156,-0.1381836,-0.6717557,-0.9923664,0.3435115
0.078125,0.9748535,-0.1159668,-3.496183,-0.480916,-0.6412213
0.06811523,0.9765625,-0.1340332,-0.610687,-0.259542,-0.08396947
0.06298828,0.9851074,-0.1032715,-0.6793893,-0.2748091,0.6564885
-eTwist-,-e-,-e-,-e-,-e-,-e-
-sTwist-,-s-,-s-,-s-,-s-,-s-
0.0703125,0.9790039,-0.1274414,-0.2213741,-0.389313,-0.03816794
0.08081055,1.007568,-0.1647949,-1.832061,-2.038168,1.427481
0.1679688,0.9621582,-0.1835938,3.534351,-150.5114,-21.57252
-0.09277344,0.8579102,-0.07739258,-33.52672,-144.687,-65.9313
-0.2919922,0.9104004,-0.3049316,-20.73282,-235.1298,2.633588
-0.1887207,1.232422,0.1943359,-9.580153,-186.8015,22.55725
0.1740723,0.720459,-0.359375,-31.38931,-226.313,-8.923664
-0.1557617,1.08252,-0.06176758,12.0458,-248.1832,66.12977
0.9050293,0.9287109,-0.005371094,-42.30534,-226.916,-7.389313
0.1843262,0.7861328,-0.5461426,-1.717557,-248.1832,-9.259542
-0.152832,1.138916,0.04296875,-6.877862,-217.8092,27.48092
0.322998,0.7062988,-0.2536621,-34.62595,-245.2214,-22.60305
-0.1291504,0.9428711,-0.1782227,-1.778626,-248.1832,23.35114
0.9055176,0.980957,-0.07958984,-34.53435,-232.0153,-25.51908
-0.3041992,0.9528809,-0.1057129,-2.381679,67.94656,22.51145
0.09350586,1.116943,0.244873,-0.6412213,160.4046,25.25191
0.05932617,0.9177246,0.1293945,14.35114,244.9695,24.94657
0.1738281,0.9633789,0.05859375,27.59542,250.1298,26.68702
0.2062988,0.9985352,0.01611328,32.80153,237.8855,19.33588
0.6269531,0.9887695,-0.3012695,25.98473,139.374,-9.717557
0.01000977,0.9396973,-0.2160645,15.90076,186.0687,-23.19084
-0.1376953,0.9086914,-0.3110352,15.70992,225.0458,9.305344
0.05297852,0.9677734,-0.1928711,10.59542,242.9618,-4.312977
0.185791,0.9890137,-0.1523438,10.30534,235.0458,-6.732824
0.2338867,0.9790039,-0.1118164,8.328244,176.4427,-11.9542
0.442627,0.9790039,-0.1262207,7.38168,1.534351,-34.64885
-0.004638672,0.9165039,-0.3942871,-18.24427,-4.129771,-54.16794
-0.3349609,1.004395,-0.1950684,-6.076336,1.450382,-15.78626
-0.2958984,1.016602,0.01220703,-3.969466,4.175572,16.30534
0.02661133,0.9689941,-0.02636719,3.099237,2.709924,23.69466
0.1132813,0.9628906,-0.1154785,1.908397,1.137405,27.8855
0.1762695,0.9973145,-0.1403809,3.496183,2.709924,11.15267
0.192627,0.9606934,-0.189209,-1.427481,0.6183206,-0.5801527
0.1572266,0.982666,-0.154541,-1.763359,-1.068702,-3.259542
0.06445313,0.9770508,-0.1015625,-3.824427,-1.534351,-1.916031
0.02197266,0.9787598,-0.09008789,-0.5725191,-0.3816794,0.4122138
0.05175781,0.9831543,-0.1132813,0.4427481,-0.6946565,1.534351
0.09179688,0.9819336,-0.1311035,0.3358779,-0.9236641,0.6946565
0.08959961,0.9736328,-0.1486816,-1.519084,-0.2671756,-0.4503817
0.07788086,0.9714355,-0.1347656,-1.816794,-0.1832061,-0.5343512
0.06225586,0.9819336,-0.1149902,-1.343511,-0.5343512,0.1908397
0.06152344,0.9816895,-0.08935547,0.4274809,-0.06870229,0.6870229
0.08032227,0.9731445,-0.1196289,0.3969466,-0.4351145,0.1526718
-eTwist-,-e-,-e-,-e-,-e-,-e-
-sTwist-,-s-,-s-,-s-,-s-,-s-
0.07641602,0.9760742,-0.1220703,-0.8778625,-0.4961832,0.1984733
0.06103516,0.9973145,-0.114502,0.7175572,0.9770992,-1.015267
0.8596191,1.053711,-0.3007813,-1.954198,-208.5114,-34.21374
-0.2954102,1.138184,-0.1103516,-27.20611,-101.8015,-61.43512
0.05712891,0.7441406,-0.5878906,-18.15267,-234.1298,-7.29771
-0.5136719,1.192139,0.291748,9.435115,-202.2366,51.30534
0.2563477,0.7246094,-0.04345703,-39.29008,-218.9084,0.9083969
0.140625,1.000244,-0.232666,-0.961832,-248.1832,-11.54962
-0.09033203,1.121338,0.05249023,-15.89313,-207.6488,18.18321
0.1577148,0.8435059,-0.2011719,-30.09924,-237.3206,-25.71756
-0.03466797,0.9995117,-0.2519531,-8.847328,-248.1832,34.16794
-0.1240234,1.27002,0.1501465,-26.0,-201.4733,-20.19084
0.104248,0.798584,-0.1379395,-16.51908,-248.1832,-5.480916
-0.06225586,0.9865723,-0.05322266,-4.755725,-114.1298,-40.78626
-0.6010742,0.7028809,0.1044922,-2.763359,73.28244,38.74809
0.1833496,0.9182129,-0.1254883,14.83969,204.6031,11.74046
0.1704102,1.030518,0.0793457,20.37405,250.1298,25.96947
0.2106934,0.9179688,-0.01757813,21.29771,250.1298,18.23664
0.2375488,0.9487305,-0.09619141,28.96947,235.0687,22.73282
0.5883789,0.8918457,-0.3271484,15.73282,129.626,-23.0687
-0.07666016,1.013184,-0.1235352,18.42748,181.145,-22.82443
-0.1491699,0.9628906,-0.08544922,18.24427,225.3817,-3.045802
-0.01074219,0.9404297,-0.1503906,16.61069,234.5878,12.19847
0.4570313,0.9091797,-0.3981934,11.90076,143.0916,-22.98473
-0.171875,1.074463,-0.1054688,8.0,201.7099,-0.7480916
-0.01879883,0.9899902,-0.08862305,9.557252,124.2137,10.78626
-0.02807617,0.9108887,-0.1560059,-10.76336,-60.19847,-35.01527
-0.2927246,0.7946777,-0.009033203,-27.38931,-13.41985,2.618321
-0.1052246,0.9082031,-0.02734375,-2.633588,2.358779,16.75573
0.09179688,1.043701,0.01806641,4.38168,0.5725191,14.79389
0.1157227,0.9875488,-0.114502,4.793893,0.6793893,13.77863
0.128418,0.9714355,-0.2087402,2.19084,0.4427481,7.40458
0.1359863,0.9750977,-0.1916504,-2.244275,-0.4656488,-0.2290076
0.07666016,0.9780273,-0.126709,-4.549618,-0.09923664,-0.4732824
0.06298828,0.9848633,-0.05493164,-2.381679,-0.8015267,-0.3435115
0.05566406,0.9858398,-0.05664063,1.015267,-0.7557252,0.3816794
0.06616211,0.973877,-0.1347656,1.717557,-0.778626,0.6412213
0.07739258,0.9736328,-0.1625977,-0.6793893,-0.7938931,0.5877862
0.08129883,0.9772949,-0.1428223,-2.877863,-0.4656488,-0.2061069
0.07080078,0.9758301,-0.09008789,-2.496183,-0.1145038,-0.1068702
0.06762695,0.9731445,-0.07641602,-0.5267176,-0.5648855,0.06870229
0.07006836,0.9765625,-0.09887695,1.290076,-0.6183206,0.3282443
0.07299805,0.9729004,-0.1384277,0.480916,-0.5114504,0.3206107
-eTwist-,-e-,-e-,-e-,-e-,-e-
-sTwist-,-s-,-s-,-s-,-s-,-s-
0.07373047,0.9785156,-0.1169434,-0.4580153,-0.778626,0.05343511
0.07714844,1.02124,-0.1005859,-0.7480916,-0.610687,0.129771
0.08740234,0.9736328,-0.08569336,6.206107,-80.8168,-2.610687
0.1279297,0.7675781,-0.04370117,-10.01527,-192.5496,-46.51145
-0.3017578,0.7282715,-0.3549805,-14.0229,-237.4962,16.93893
-0.06469727,1.211182,0.215332,-13.85496,-143.9847,-2.160305
0.1237793,0.7509766,-0.2536621,-22.48092,-220.2443,5.312977
0.01220703,1.007813,-0.276123,-4.519084,-248.1832,38.05344
0.307373,1.09375,0.03222656,-16.36641,-204.4427,-12.38168
-0.02416992,0.7636719,-0.3181152,-16.45038,-248.1832,21.93893
-0.1049805,1.156006,0.08496094,-17.45802,-191.8473,-4.778626
0.2192383,0.8596191,-0.3669434,-22.49618,-218.084,-13.07634
-0.09887695,0.9282227,-0.3498535,-8.0,-248.1832,22.03053
0.06152344,1.060303,-0.1525879,-27.55725,-241.9237,-32.20611
-0.5351563,0.9709473,-0.2009277,-7.412214,46.31298,28.41221
0.2275391,1.074219,0.05273438,12.0229,129.3282,23.0229
-0.0144043,1.010986,0.07861328,14.91603,233.6031,26.68702
0.1914063,0.9423828,-0.03222656,26.52672,250.1298,20.45038
0.3076172,0.9660645,-0.1633301,24.0916,250.1298,8.59542
0.5864258,1.043945,-0.298584,19.0,146.0153,-16.62595
0.105957,1.006592,-0.08398438,19.00763,174.3969,-19.58015
-0.04150391,0.9558105,-0.1577148,16.09924,219.0916,-11.21374
-0.08544922,0.9746094,-0.1352539,19.51145,250.1298,2.48855
0.08618164,1.01416,-0.1760254,18.0916,250.1298,2.129771
0.4013672,1.017578,-0.2563477,16.87786,187.2366,-7.19084
0.1520996,0.980957,-0.08618164,7.740458,68.61069,-13.98473
0.2070313,0.7521973,-0.3642578,-2.900763,-51.48855,-40.38168
-0.3012695,0.7893066,-0.1481934,-25.55725,-15.08397,-8.885496
-0.263916,0.9675293,-0.004150391,-6.358778,3.519084,14.03053
0.04052734,1.021729,0.04541016,1.541985,0.03816794,15.08397
0.09863281,0.9753418,-0.06445313,5.320611,-0.09923664,16.57252
0.1210938,0.9597168,-0.1833496,3.328244,0.2213741,13.72519
0.1367188,0.9785156,-0.2114258,-0.519084,-0.1145038,2.709924
0.08569336,0.9697266,-0.1711426,-1.145038,-0.3435115,0.3816794
0.07885742,0.9714355,-0.1411133,-3.183206,-0.2366412,-0.04580153
0.07226563,0.9804688,-0.09008789,-2.366412,-0.1068702,-0.1450382
0.07006836,0.9875488,-0.06958008,0.2748091,-0.8167939,0.04580153
0.06542969,0.9799805,-0.123291,1.396947,-0.6641222,0.389313
0.07348633,0.9707031,-0.154541,0.2061069,-0.3816794,0.3206107
0.07470703,0.9763184,-0.1342773,-1.877863,-0.5267176,0.0
0.07373047,0.9775391,-0.1071777,-2.236641,-0.4503817,0.1755725
0.06420898,0.980957,-0.09008789,-0.5572519,-0.5496183,-0.09923664
0.0690918,0.9777832,-0.1035156,0.3969466,-0.8091603,0.007633588
-eTwist-,-e-,-e-,-e-,-e-,-e-
-sTwist-,-s-,-s-,-s-,-s-,-s-
0.06225586,0.973877,-0.1162109,-0.8625955,-0.5343512,0.2442748
0.07006836,1.009521,-0.1396484,-1.687023,-1.580153,1.251908
0.3752441,1.083008,-0.5068359,-14.49618,-191.2366,-32.80153
-0.1831055,1.098633,0.157959,-18.94657,-111.9466,-55.55725
-0.04614258,0.6933594,-0.3666992,-22.23664,-194.0992,-6.244275
-0.2941895,0.9956055,0.01367188,-2.40458,-222.3664,45.61832
0.1499023,1.25415,0.2202148,-9.870229,-184.313,-7.274809
0.161377,0.802002,-0.2919922,-14.99237,-248.1832,12.79389
-0.09350586,0.9799805,-0.05371094,-9.396947,-248.1832,29.0916
0.1477051,1.03833,0.007324219,-19.36641,-223.4504,-18.51908
-0.0480957,0.9196777,-0.3430176,-9.603053,-248.1832,55.10687
