ax,ay,az,gx,gy,gz
-sTwist-,-s-,-s-,-s-,-s-,-s-
0.1147461,0.9787598,-0.1513672,-0.2900764,-0.5572519,0.351145
0.1130371,0.96875,-0.1755371,-1.114504,-0.7328244,0.480916
1.190674,1.217285,-0.3132324,2.427481,-210.9771,-22.78626
-0.1425781,1.259277,0.2150879,-5.961832,-73.51145,-18.85496
1.253662,0.8986816,-0.4726563,-17.65649,-174.8168,-31.96183
-0.1625977,0.9968262,-0.1369629,3.10687,-248.1832,-13.9542
-0.09912109,0.9289551,0.05175781,-26.62595,-166.3053,-38.86259
-0.03735352,0.822998,-0.4765625,-5.251908,-248.1832,-16.57252
0.5444336,0.8833008,-0.3049316,-8.106871,-248.1832,1.053435
-0.1496582,1.104248,0.1589355,-17.73282,-132.7252,-14.08397
0.2861328,0.8308105,-0.7111816,-24.85496,-223.3817,-9.297709
-0.1547852,1.261719,0.1345215,-10.31298,-233.4351,37.74046
-0.078125,0.840332,-0.1188965,-27.8855,-176.5267,-12.80916
-0.3986816,0.8549805,-0.1049805,-7.129771,56.21374,-0.519084
-0.1193848,1.07666,0.03833008,9.511451,165.542,36.90076
-0.3291016,0.9003906,0.1704102,12.51908,250.1298,56.64885
0.2785645,0.8947754,-0.04711914,21.84733,250.1298,-1.526718
0.3210449,0.8947754,-0.1306152,31.61069,250.1298,2.793893
0.3225098,1.01709,-0.171875,33.89313,249.8092,-0.4732824
0.1921387,1.004639,-0.1809082,29.0458,250.1298,-2.389313
0.342041,0.9855957,-0.267334,25.96183,250.1298,-8.870229
0.2426758,0.9807129,-0.3354492,20.48855,250.1298,-5.908397
0.2011719,1.044678,-0.04907227,21.28244,250.1298,-9.793893
-0.1958008,0.9155273,-0.08813477,9.145039,250.1298,-0.6335878
0.7866211,0.9558105,-0.142334,15.77863,201.145,-9.641221
1.084961,0.7770996,-0.4311523,7.648855,-33.0916,-58.25191
-0.114502,1.101318,-0.2219238,-15.16031,-6.648855,-42.64122
-0.255127,0.8666992,-0.2590332,-8.442748,0.8549618,-14.9084
-0.2678223,0.9804688,-0.1318359,-4.664122,-0.740458,7.633588
-0.1345215,1.016602,-0.002197266,-0.4045802,3.641221,26.27481
0.08129883,0.9770508,-0.07714844,4.625954,1.847328,31.56489
0.5227051,0.9797363,-0.1352539,5.961832,-4.450382,8.587787
0.1855469,0.9663086,-0.2463379,-0.1374046,0.6870229,5.763359
0.2248535,0.9423828,-0.2363281,-4.251908,0.2290076,-0.3664122
0.1606445,0.9709473,-0.1276855,-5.236641,-0.1679389,-4.717557
0.1030273,0.9833984,-0.07373047,-1.396947,-0.5648855,-4.244275
0.05493164,0.9912109,-0.09838867,2.51145,-0.9541985,-1.755725
0.04663086,0.9755859,-0.1540527,2.221374,-0.5648855,1.541985
0.07592773,0.9667969,-0.1928711,-0.3969466,-0.5343512,2.549618
0.1162109,0.9685059,-0.1975098,-2.770992,-0.3358779,1.648855
0.1306152,0.9787598,-0.1386719,-3.465649,-0.4274809,-0.1221374
0.1247559,0.9875488,-0.1074219,-1.221374,-0.4885496,-1.015267
0.09423828,0.9848633,-0.1154785,1.076336,-0.610687,-1.061069
-eTwist-,-e-,-e-,-e-,-e-,-e-
-sTwist-,-s-,-s-,-s-,-s-,-s-
0.1074219,0.980957,-0.1477051,-0.6641222,-0.6259542,0.3358779
0.1035156,0.9777832,-0.09423828,-0.05343511,0.09923664,-0.4427481
0.1210938,0.9960938,-0.1992188,-2.496183,-14.56489,-1.732824
0.6943359,0.628418,-0.659668,-17.03053,-170.5802,-38.42748
-0.2243652,0.9709473,-0.08447266,-0.351145,-235.1832,21.10687
-0.1921387,1.051758,-0.0637207,-29.56489,-135.1374,-30.31298
0.01806641,0.7414551,-0.5922852,-12.71756,-213.4198,2.137405
-0.09399414,0.9238281,-0.1459961,-2.29771,-248.1832,-10.48855
-0.1606445,1.127197,0.1279297,-14.09924,-188.4122,0.6641222
0.09106445,0.8500977,-0.4777832,-8.885496,-248.1832,-4.633588
-0.1923828,1.17627,0.1813965,-0.7480916,-221.145,40.07634
0.004394531,0.6396484,-0.4543457,-22.28244,-170.3969,-13.17557
-0.001708984,0.7929688,-0.4584961,-0.6793893,-248.1832,-22.76336
0.1774902,1.140625,0.08984375,-29.64886,-177.7939,-13.45038
-0.6047363,0.7163086,-0.2050781,-26.25954,150.8321,15.25191
0.1391602,0.9831543,-0.02197266,10.61069,234.2672,62.48855
0.2307129,1.1521,0.1833496,14.0916,245.771,43.68702
0.3896484,0.8686523,-0.04785156,19.38168,250.1298,15.39695
0.5375977,1.049561,-0.08032227,39.76336,250.1298,-1.374046
0.2062988,1.010498,-0.07446289,34.58015,250.1298,-0.1832061
0.5080566,0.9152832,-0.2277832,36.10687,250.1298,-11.48855
0.3205566,1.056152,-0.1396484,34.89313,250.1298,-10.38931
0.003662109,0.9560547,-0.2487793,15.90076,250.1298,-4.763359
0.7138672,0.9350586,-0.2001953,16.59542,250.1298,-10.83969
-0.2954102,1.061279,-0.04711914,3.274809,-3.755725,-18.40458
-0.2387695,1.001709,-0.1247559,-7.022901,-1.526718,0.3206107
-0.1867676,0.9553223,-0.1130371,-5.740458,1.374046,20.96947
0.04736328,0.9831543,-0.06347656,2.335878,0.08396947,26.86259
0.3776855,0.9799805,-0.1086426,3.992366,-3.519084,10.54962
0.1833496,0.9729004,-0.2067871,1.717557,-0.3358779,7.564886
0.220459,0.9545898,-0.2250977,-2.381679,-0.1526718,0.6412213
0.1933594,0.9707031,-0.1672363,-4.068702,-0.5725191,-3.564885
0.1335449,0.9816895,-0.09960938,-2.954198,-0.8015267,-4.847328
0.07714844,0.9909668,-0.0949707,0.519084,-0.8549618,-3.152672
0.05151367,0.9829102,-0.1257324,1.763359,-0.5648855,-0.1908397
0.06738281,0.9743652,-0.1677246,1.099237,-0.4732824,2.076336
0.1018066,0.9731445,-0.1760254,-1.694656,-0.4732824,2.358779
0.1315918,0.9785156,-0.1325684,-1.977099,-0.6030535,-0.1908397
0.1210938,0.9802246,-0.1091309,-0.4274809,-0.5419847,-1.160305
0.1008301,0.9821777,-0.1411133,0.5343512,-0.3740458,-0.8015267
0.08447266,0.9748535,-0.1687012,-0.1832061,-0.4274809,0.1603053
0.09277344,0.9741211,-0.1625977,-1.419847,-0.5267176,1.030534
0.1000977,0.9799805,-0.1486816,-1.732824,-0.3664122,0.9236641
-eTwist-,-e-,-e-,-e-,-e-,-e-
-sTwist-,-s-,-s-,-s-,-s-,-s-
0.1054688,0.9785156,-0.152832,-0.9541985,-0.5725191,0.3816794
0.1176758,0.9572754,-0.1650391,-2.320611,-1.091603,0.8854962
0.09423828,0.9399414,-0.175293,-1.129771,0.07633588,-0.1374046
0.1223145,0.9916992,-0.1381836,-0.4885496,-31.39695,0.1679389
0.623291,0.6923828,-0.4990234,-12.65649,-142.0763,-41.67939
-0.2058105,1.028564,-0.2456055,0.3969466,-208.3359,23.1145
-0.1989746,0.9995117,0.05004883,-24.32061,-157.7099,-14.66412
0.1015625,0.786377,-0.4072266,-19.67939,-218.9542,-15.85496
-0.2558594,1.136719,0.07519531,7.366412,-242.5343,55.12214
0.1025391,0.7817383,0.04125977,-21.46565,-220.3512,-9.328244
-0.03198242,0.9150391,-0.3447266,2.114504,-240.9542,7.839694
0.1276855,1.197754,0.06201172,-1.946565,-224.1221,7.59542
0.3342285,0.7331543,-0.4821777,-25.14504,-247.9771,-9.992367
-0.298584,1.023682,-0.3605957,-13.10687,17.99237,-10.35114
-0.8852539,1.008301,0.2446289,3.549618,184.2443,82.45802
0.123291,0.9658203,0.2614746,0.05343511,250.1298,59.22137
1.043945,0.8999023,-0.2011719,16.24427,233.1527,13.15267
0.08886719,0.9853516,-0.03369141,28.17557,250.1298,9.694656
0.3325195,0.8547363,-0.1728516,30.62595,250.1298,-1.374046
0.5556641,0.8977051,-0.3920898,35.13741,250.0229,-15.59542
-0.08496094,1.080078,-0.2231445,31.84733,250.1298,-0.351145
0.2568359,0.8684082,-0.3662109,20.17557,248.4275,-18.26718
-0.2148438,0.9729004,-0.06518555,20.96183,250.1298,10.21374
0.03613281,0.9367676,-0.2526855,4.763359,250.1298,-10.96947
0.0715332,1.0354,-0.08569336,16.03817,250.1298,-3.954198
0.6242676,0.9350586,-0.04418945,14.61832,18.68702,-35.96183
0.09204102,0.9443359,-0.1774902,-9.022901,-17.78626,-44.9542
-0.2836914,0.9304199,-0.3344727,-1.221374,-8.40458,-23.69466
-0.2695313,1.020752,-0.09033203,-5.938931,-2.167939,5.160306
-0.1027832,0.9475098,-0.04516602,-5.114504,-3.259542,22.45038
0.07861328,0.9401855,-0.1064453,0.1374046,-10.9084,27.60305
0.2807617,1.054688,-0.1396484,3.572519,-10.38931,14.41221
0.2089844,0.9741211,-0.1994629,0.4656488,-4.709924,7.954198
0.2214355,0.9619141,-0.1794434,-3.519084,-1.259542,1.51145
0.1960449,0.9609375,-0.1394043,-3.641221,-1.114504,-3.450382
0.151123,0.9858398,-0.0925293,-0.9083969,-1.076336,-5.519084
0.08618164,0.9885254,-0.1003418,1.748092,-1.70229,-3.671756
0.06274414,0.9755859,-0.1481934,1.427481,-1.305344,-1.091603
0.06274414,0.9755859,-0.177002,-0.3816794,-0.7251908,0.8854962
0.0925293,0.9768066,-0.1630859,-2.175573,-0.610687,1.770992
0.1164551,0.9716797,-0.1313477,-2.442748,-0.4503817,1.236641
0.1276855,0.9770508,-0.1225586,0.129771,-0.8015267,-0.6259542
0.1071777,0.9707031,-0.1359863,0.2977099,-0.5877862,-0.6717557
-eTwist-,-e-,-e-,-e-,-e-,-e-
-sTwist-,-s-,-s-,-s-,-s-,-s-
0.1115723,0.9741211,-0.1472168,-1.0,-0.7022901,0.1221374
0.0949707,0.9819336,-0.09057617,-0.02290076,0.5267176,-1.381679
0.1196289,1.003418,-0.1972656,-2.122137,-1.21374,1.19084
0.01220703,0.892334,-0.3740234,-11.67176,-234.5114,2.503817
-0.1782227,1.178467,0.1850586,-1.267176,-248.1832,40.47328
0.5581055,0.9753418,0.1123047,-21.21374,-248.1832,6.961832
0.1247559,0.8444824,-0.2446289,-12.12214,-248.1832,7.442748
-0.1213379,0.9604492,-0.1181641,-15.45802,-213.8702,2.709924
0.7514648,1.040039,-0.4506836,-6.954198,-248.1832,2.969466
-0.0612793,1.000977,-0.2648926,-17.77863,-176.6718,-1.129771
-0.0534668,1.025635,-0.1945801,-15.65649,-120.0534,12.35878
0.8068848,1.069824,-0.197998,-10.31298,-248.1832,-8.870229
-0.105957,0.9904785,0.2207031,-34.63359,-167.9008,-22.39695
0.09960938,0.7907715,-0.6359863,-14.74809,-241.5954,-23.26718
-0.1696777,1.366699,0.2565918,0.9847328,-81.24428,-35.14504
-0.9060059,0.9162598,0.3623047,2.625954,187.5725,53.67939
0.1130371,0.7993164,-0.2460938,6.656488,250.1298,32.74809
0.1362305,0.8347168,-0.1135254,30.25191,223.1832,75.57252
0.3811035,1.049805,0.04711914,28.38931,231.7939,6.603054
0.1577148,0.9355469,-0.1677246,17.76336,250.1298,5.007634
0.5905762,0.9890137,-0.1882324,30.32061,250.1298,-8.587787
0.02026367,1.04248,0.04541016,27.25191,250.1298,-8.732824
0.6347656,0.885498,-0.123291,25.72519,250.1298,-12.20611
-0.1337891,1.008789,-0.08666992,25.07634,250.1298,10.41985
0.2844238,0.9536133,-0.3947754,11.41985,144.9771,-22.33588
0.6784668,0.7409668,-0.7175293,-4.854962,-17.37405,-67.64886
-0.2145996,1.229248,-0.1096191,-5.778626,-1.122137,-33.32061
-0.2207031,0.9189453,-0.1508789,-11.77863,-1.89313,-11.61832
-0.2424316,1.006104,-0.03173828,-4.778626,-0.7709923,12.20611
-0.03173828,1.033447,0.02636719,3.015267,0.9694656,20.80916
0.06616211,0.9458008,-0.1147461,4.206107,-0.3053435,25.03817
0.3051758,1.011963,-0.1928711,3.70229,-4.541985,12.12977
0.2358398,0.9694824,-0.269043,-1.435114,-0.5114504,5.908397
0.2253418,0.9616699,-0.220459,-5.832061,-0.06870229,-1.022901
0.1816406,0.9741211,-0.1157227,-5.091603,-0.09923664,-4.961832
0.121582,0.9804688,-0.06616211,-1.015267,-0.8091603,-4.877862
0.06518555,0.9924316,-0.08496094,3.419847,-1.282443,-2.29771
0.04638672,0.9731445,-0.1574707,2.580153,-0.5954198,0.9312977
0.08398438,0.9731445,-0.2033691,-1.793893,-0.5801527,2.816794
0.1164551,0.9782715,-0.1757813,-3.48855,-0.3740458,1.854962
0.1337891,0.9824219,-0.1096191,-2.694656,-0.4351145,0.2061069
0.1313477,0.979248,-0.1159668,1.465649,-1.053435,-1.290076
0.09326172,0.967041,-0.140625,0.9312977,-0.3282443,-0.5419847
-eTwist-,-e-,-e-,-e-,-e-,-e-
-sTwist-,-s-,-s-,-s-,-s-,-s-
0.1052246,0.9804688,-0.140625,-0.5801527,-0.1450382,-0.0610687
0.1108398,0.953125,-0.2319336,-2.351145,-0.9694656,0.870229
0.09594727,0.9467773,-0.1223145,0.7938931,-0.02290076,0.5038168
0.1958008,0.9812012,-0.09936523,-3.374046,-141.5802,-4.648855
0.02294922,0.574707,-0.2338867,-25.80916,-127.7634,-35.83969
0.01318359,0.9133301,-0.2768555,-3.961832,-209.3512,-36.15267
-0.2717285,1.160156,0.2041016,-9.778625,-182.7328,14.87023
0.2023926,0.9138184,-0.4313965,-30.49618,-207.8855,-31.41221
-0.1630859,0.9296875,-0.1306152,3.328244,-248.1832,39.67939
-0.06567383,1.094727,0.1352539,-15.38931,-206.9008,12.18321
0.7702637,0.904541,-0.2080078,-18.35114,-248.1832,-7.267176
-0.1906738,0.9179688,-0.1479492,-5.80916,-247.0382,36.09924
0.09570313,0.9968262,-0.2319336,-22.56489,-237.4275,1.78626
-0.3369141,0.9106445,-0.1135254,-22.16031,115.6641,-40.80153
-0.3122559,0.8249512,-0.09521484,8.053435,185.2366,94.75572
0.2573242,1.205811,0.2631836,8.389313,250.1298,31.72519
0.6484375,0.8364258,-0.1706543,14.38931,250.1298,12.64122
0.5668945,1.092041,0.007568359,41.16031,250.1298,-6.648855
-0.07666016,0.9287109,-0.02416992,24.53435,250.1298,-4.740458
0.5197754,0.8217773,-0.5847168,29.86259,250.1298,-16.58779
-0.1020508,1.021484,-0.2629395,29.87786,250.1298,-12.81679
0.2497559,0.9379883,-0.270752,19.54962,250.1298,-11.26718
0.2050781,0.9772949,-0.3017578,12.03053,250.1298,-10.64886
-0.119873,0.9587402,-0.2661133,2.908397,250.1298,1.251908
0.604248,0.9814453,-0.1789551,17.20611,233.7634,-12.19847
0.7141113,0.9414063,-0.2004395,11.1374,-0.3282443,-40.28244
0.01831055,0.9460449,-0.2299805,-7.152672,-32.0,-40.56488
-0.2485352,0.9250488,-0.3461914,-2.137405,-20.76336,-21.70992
0.1123047,0.9604492,-0.1398926,3.137405,-11.27481,12.15267
0.185791,0.9506836,-0.201416,0.03053435,-2.343511,7.045802
0.2387695,0.9450684,-0.201416,-3.145038,-0.7022901,-0.3664122
0.1906738,0.9702148,-0.121582,-3.496183,-0.870229,-4.603054
0.1274414,0.987793,-0.07885742,-0.778626,-1.48855,-5.091603
0.08374023,0.973877,-0.09692383,1.274809,-1.824428,-3.114504
0.06030273,0.9697266,-0.1591797,1.648855,-1.152672,-0.4351145
0.08032227,0.972168,-0.1728516,-0.4045802,-0.7480916,1.267176
0.1005859,0.9729004,-0.1643066,-2.427481,-0.4580153,1.534351
0.1201172,0.9807129,-0.140625,-2.267176,-0.6259542,1.007634
0.1164551,0.9865723,-0.1132813,0.09160305,-0.648855,-0.6564885
0.1083984,0.9746094,-0.1394043,0.7557252,-0.7938931,-0.2671756
0.09521484,0.9765625,-0.1496582,-0.2137404,-0.4427481,0.2137404
0.1018066,0.9770508,-0.1450195,-1.328244,-0.5877862,0.5954198
0.1052246,0.9731445,-0.1367188,-1.740458,-0.3664122,0.5801527
-eTwist-,-e-,-e-,-e-,-e-,-e-
-sTwist-,-s-,-s-,-s-,-s-,-s-
0.1062012,0.9660645,-0.1379395,-1.10687,-0.2366412,0.1068702
0.09057617,0.9421387,-0.1623535,-2.129771,0.1755725,-0.5801527
0.1130371,0.9770508,-0.09838867,-2.549618,-80.229,-4.251908
0.4484863,0.7910156,-0.322998,-13.0229,-185.6412,-20.80916
0.1259766,0.8642578,-0.3723145,-15.74046,-206.9313,-41.80153
-0.291748,1.014648,-0.02172852,-8.938931,-238.0382,27.40458
0.003662109,0.9484863,-0.02954102,-19.17557,-187.8931,-10.43511
0.006591797,0.8061523,-0.2089844,-2.51145,-248.1832,32.77863
-0.02856445,1.116699,0.1049805,-3.526718,-193.0992,24.73282
1.121826,0.9589844,-0.2709961,-12.58779,-248.1832,-1.229008
-0.01318359,0.9892578,-0.3666992,-7.274809,-248.1832,7.251908
0.0559082,1.044434,-0.1269531,-20.01527,-230.5191,3.076336
0.6726074,1.011719,-0.2827148,-11.17557,-248.1832,-6.89313
-0.182373,1.173828,0.1655273,-32.25191,-159.9542,-27.03053
-0.7375488,0.8354492,0.06225586,-18.57252,243.771,64.9542
0.1992188,0.6445313,-0.223877,9.503817,219.687,83.84733
0.784668,1.289063,0.2099609,31.35878,238.6107,24.41985
-0.009765625,1.105957,0.1914063,27.39695,250.1298,8.442748
0.4794922,0.7822266,-0.4477539,23.55725,250.1298,-6.091603
0.449707,0.9960938,-0.2949219,35.76336,250.1298,-10.41985
-0.138916,0.9868164,-0.08422852,24.12977,250.1298,2.656489
0.3149414,0.8232422,-0.2902832,16.91603,250.1298,-14.42748
-0.1540527,1.002197,-0.06835938,20.1145,250.1298,-4.748092
0.34375,0.9492188,-0.2861328,11.77099,250.1298,-11.9313
-0.135498,1.022949,-0.02246094,22.96183,250.1298,-10.41221
0.7497559,0.9367676,-0.2631836,10.77099,91.54198,-28.32825
0.4135742,0.8713379,-0.5019531,-1.824428,-18.27481,-52.77099
-0.1904297,1.131592,-0.1542969,-1.351145,-35.54962,-24.25954
-0.2373047,0.9428711,-0.1342773,-14.35114,-8.717557,-9.740458
-0.1936035,0.9851074,-0.03881836,-7.366412,-12.75572,15.75572
0.02319336,0.9887695,-0.03076172,-1.458015,-13.92366,17.37405
0.07543945,0.9804688,-0.05273438,3.167939,-11.39695,20.50382
0.128418,0.9921875,-0.154541,5.38168,-1.282443,14.75572
0.2268066,0.9580078,-0.2421875,0.7862596,-1.458015,7.251908
0.2392578,0.9584961,-0.2185059,-3.938931,-0.1221374,-4.114504
0.1269531,0.9885254,-0.05957031,-1.816794,-1.160305,-4.969466
0.06884766,0.9824219,-0.07958984,2.198473,-1.061069,-2.580153
0.06152344,0.9736328,-0.1379395,2.274809,-0.9694656,0.05343511
0.08203125,0.9758301,-0.185791,0.351145,-0.6183206,1.503817
0.1079102,0.9772949,-0.1791992,-2.503817,-0.2442748,1.51145
0.1298828,0.9743652,-0.1254883,-2.954198,-0.5267176,0.610687
0.1274414,0.9750977,-0.1015625,-1.458015,-0.7022901,-0.1908397
0.1203613,0.9760742,-0.1118164,0.4122138,-0.778626,-0.6030535
-eTwist-,-e-,-e-,-e-,-e-,-e-
-sTwist-,-s-,-s-,-s-,-s-,-s-
0.1193848,0.9790039,-0.1428223,-0.7328244,-0.5801527,0.1145038
0.1191406,0.9943848,-0.1706543,-2.030534,-0.5725191,0.7862596
0.09350586,0.9528809,-0.1120605,-0.6564885,-2.984733,1.969466
0.626709,0.9431152,-0.270752,-2.969466,-127.5802,-18.06107
0.5556641,1.097656,-0.1271973,-3.801527,-214.7557,-27.77099
-0.2629395,1.022461,0.05639648,-9.59542,-196.8092,13.35114
0.6491699,0.876709,-0.2077637,-20.86259,-228.6718,-32.72519
0.2775879,0.894043,-0.2839355,-24.35878,-241.5267,-4.977099
0.4313965,0.8654785,-0.4428711,-22.50382,-248.1832,-13.74809
-0.1655273,1.061035,-0.02685547,-15.90076,-248.1832,31.16794
-0.02319336,0.5734863,-0.2832031,-30.62595,-241.3206,-23.03053
-0.09692383,0.9682617,-0.2387695,-4.770992,-248.1832,27.65649
-0.02587891,0.9846191,0.08203125,-26.98473,-205.9313,-10.16031
0.6223145,0.8925781,-0.4355469,-14.19847,-232.9542,-24.48092
-0.1413574,1.18457,-0.08398438,-4.312977,-105.5038,-26.92366
-0.8225098,1.05127,0.3908691,1.564886,182.8626,71.1145
0.1496582,0.6904297,-0.1413574,3.549618,250.1298,45.89313
0.1982422,0.9355469,-0.157959,23.9084,232.9389,48.34351
0.2172852,1.136719,-0.03588867,24.54198,250.1298,9.694656
0.4787598,0.9121094,-0.2258301,18.22137,250.1298,-9.015267
0.01806641,1.008057,-0.07202148,35.9084,250.1298,-14.38168
0.1813965,0.9194336,-0.1560059,24.68702,250.1298,-19.12977
0.1279297,0.9941406,-0.4938965,21.57252,250.1298,-12.70992
-0.09326172,1.022949,-0.3051758,22.18321,250.1298,-10.20611
0.3215332,0.9091797,-0.2246094,12.96183,146.3893,-22.26718
0.7116699,0.8295898,-0.6154785,-2.610687,-13.63359,-59.12214
-0.1760254,1.202393,-0.1323242,-13.33588,-0.9847328,-31.83969
-0.192627,0.9375,-0.1206055,-11.19847,-0.8244275,-10.48855
-0.2148438,0.9992676,-0.04150391,-4.053435,-0.648855,10.36641
-0.05517578,1.029541,0.008789063,3.427481,2.221374,19.81679
0.07397461,0.9555664,-0.114502,4.412214,0.4961832,22.18321
0.1672363,0.982666,-0.2268066,4.351145,-1.748092,11.70229
0.2336426,0.9724121,-0.2380371,-1.603053,-1.335878,4.526718
0.2211914,0.9597168,-0.1918945,-5.78626,0.2366412,-4.480916
0.1166992,0.9885254,-0.06274414,-1.580153,-0.5801527,-4.519084
0.07080078,0.9931641,-0.08618164,2.870229,-1.030534,-2.091603
0.05297852,0.9724121,-0.1542969,2.679389,-0.2977099,0.7938931
0.07470703,0.9675293,-0.2075195,0.0,-0.2290076,2.618321
0.1130371,0.9699707,-0.1767578,-2.862595,-0.5648855,2.351145
0.1335449,0.9797363,-0.1362305,-3.427481,-0.4503817,0.6030535
0.1330566,0.9780273,-0.1054688,-1.374046,-0.4198473,-0.4885496
0.1171875,0.9853516,-0.1359863,1.022901,-0.6259542,-0.9923664
0.09912109,0.9775391,-0.1711426,0.740458,-0.6335878,-0.01526718
-eTwist-,-e-,-e-,-e-,-e-,-e-
-sTwist-,-s-,-s-,-s-,-s-,-s-
0.1086426,0.970459,-0.1445313,-1.122137,-0.3740458,0.01526718
0.1083984,0.958252,-0.2148438,-2.251908,-1.114504,0.5114504
0.1018066,0.9436035,-0.1418457,0.4580153,-21.94657,1.236641
0.6333008,0.7028809,-0.6010742,-9.694656,-166.4275,-44.85496
-0.2915039,1.121582,-0.02270508,0.6030535,-146.9542,12.32061
0.1352539,0.9597168,-0.3500977,-24.63359,-167.771,-23.75573
0.078125,0.8659668,-0.4772949,-17.0,-248.1832,-18.01527
-0.2941895,1.22583,0.2026367,-11.50382,-216.4809,18.82443
0.1184082,0.762207,-0.5224609,-20.68702,-219.5114,-3.694656
-0.006103516,0.9841309,-0.2043457,3.908397,-248.1832,-6.10687
-0.05517578,1.1604,0.1455078,-18.64886,-201.7786,-2.412214
0.2319336,0.904541,-0.6464844,-14.65649,-248.1832,7.259542
-0.09912109,1.378662,0.1660156,-12.45802,-239.084,24.38168
0.08666992,0.6989746,-0.4145508,-32.09924,-234.2748,0.8396947
-0.3232422,0.9487305,-0.1274414,-27.85496,73.12214,-23.83969
-0.6179199,0.9016113,-0.04394531,8.312977,178.855,75.38168
0.1882324,1.138184,0.1923828,14.44275,250.1298,66.25954
1.015381,0.8913574,-0.06689453,21.9313,250.1298,15.05344
0.4572754,0.9780273,0.02441406,39.12214,237.3359,-2.717557
0.109375,0.9287109,-0.03491211,29.64886,250.1298,2.015267
0.8212891,0.8747559,-0.3701172,29.60305,250.1298,-12.54198
-0.0078125,1.019287,-0.2861328,26.32061,250.1298,-9.679389
0.2304688,0.9321289,-0.3540039,16.91603,250.1298,-9.633588
0.3305664,1.010986,-0.1635742,22.23664,250.1298,-11.16794
0.90625,1.180908,-0.138916,18.65649,69.84733,-23.52672
0.3769531,0.7321777,-0.2612305,-3.580153,1.816794,-61.89313
-0.2473145,1.139893,0.1538086,2.847328,-1.274809,-21.54962
-0.2155762,0.9724121,-0.04150391,-8.083969,-0.9389313,-5.656488
-0.2021484,0.953125,-0.111084,-3.862595,0.6717557,14.60305
-0.02270508,1.000488,-0.07006836,4.778626,1.793893,22.70992
0.08813477,0.9802246,-0.1479492,4.496183,2.290076,12.68702
0.2629395,0.9450684,-0.2456055,2.183206,-4.045802,8.480916
0.08203125,0.9916992,-0.08789063,2.274809,-0.7709923,-2.694656
0.05297852,0.9775391,-0.1469727,2.282443,-0.5343512,1.954198
0.09838867,0.9716797,-0.1884766,-2.061069,-0.4274809,2.435115
0.1296387,0.9758301,-0.1442871,-3.374046,-0.5954198,1.122137
0.1303711,0.9807129,-0.1152344,-1.938931,-0.3206107,-0.2137404
0.119873,0.9750977,-0.1210938,0.4045802,-0.5496183,-0.9312977
0.1086426,0.9753418,-0.1560059,0.778626,-0.6335878,-0.7709923
0.09350586,0.9741211,-0.1713867,-0.2748091,-0.5419847,0.04580153
0.09155273,0.9699707,-0.1655273,-1.816794,-0.4427481,0.6870229
0.1018066,0.9743652,-0.1345215,-2.053435,-0.4885496,0.9770992
0.1164551,0.9851074,-0.123291,-0.778626,-0.4427481,0.4351145
-eTwist-,-e-,-e-,-e-,-e-,-e-
-sTwist-,-s-,-s-,-s-,-s-,-s-
0.1083984,0.9782715,-0.1384277,-0.5114504,-0.5419847,-0.02290076
0.1154785,0.954834,-0.1889648,-2.29771,-1.290076,0.6564885
0.329834,0.9152832,-0.1804199,-3.259542,-170.0382,-15.92366
-0.04638672,0.828125,-0.07543945,-26.24427,-126.7634,-36.92366
0.6901855,1.048584,-0.3884277,-17.9084,-176.1069,-42.54962
-0.2089844,0.9936523,-0.0402832,4.450382,-248.1832,35.47328
-0.1293945,1.17627,0.3261719,-21.18321,-187.1069,-0.9236641
0.1850586,0.6916504,-0.5063477,-22.20611,-248.1832,-13.96183
-0.2087402,1.19751,0.05932617,3.183206,-241.4657,32.84733
0.3127441,0.8781738,-0.1279297,-16.23664,-241.4275,6.435114
0.4785156,0.8901367,-0.4055176,-16.24427,-248.1832,-5.549618
-0.09057617,1.090088,-0.1967773,-26.49618,-196.3359,-14.74809
0.15625,0.8591309,-0.6201172,-21.61069,-248.1832,-17.90076
-0.1408691,1.359131,0.159668,-27.34351,-114.4427,-27.50382
-0.6955566,0.9995117,0.3300781,-7.938931,175.5954,56.99237
0.1491699,0.8027344,0.01220703,5.267176,244.2443,48.71756
0.234375,1.034668,0.05102539,24.98473,218.8702,34.71756
0.1040039,0.9587402,0.03051758,25.45802,250.1298,14.12977
0.6074219,0.8564453,-0.3083496,27.38931,248.8626,-5.748092
0.2807617,1.013916,-0.1706543,33.74809,250.1298,-4.862596
0.1818848,0.920166,-0.2792969,24.29771,250.1298,-3.847328
0.3383789,0.9362793,-0.282959,27.44275,250.1298,-11.93893
-0.06396484,1.022217,-0.298584,17.86259,250.1298,-5.183206
0.2111816,0.9274902,-0.1408691,14.21374,250.1298,-16.92366
-0.08813477,0.9768066,-0.0859375,19.72519,250.1298,-11.45038
0.8415527,1.067383,-0.1401367,16.83206,10.50382,-33.68702
0.1652832,0.744873,-0.2851563,-13.83206,-15.70229,-57.57252
-0.3208008,1.063965,-0.1601563,4.80916,-3.091603,-29.61832
-0.2548828,1.011963,-0.05395508,-5.458015,-1.381679,-6.396946
-0.2150879,0.8918457,-0.1123047,-6.80916,2.671756,17.73282
0.01831055,0.9841309,-0.046875,4.412214,-0.2061069,24.57252
0.08422852,0.9831543,-0.109375,3.755725,-0.5114504,30.58779
0.4489746,1.013184,-0.185791,1.526718,-5.183206,10.20611
0.234375,0.9553223,-0.2399902,-3.335878,0.3053435,4.335878
0.213623,0.9631348,-0.1787109,-4.38168,-0.3664122,-1.473282
0.1604004,0.9863281,-0.09350586,-2.656489,-0.6564885,-4.778626
0.07958984,0.9807129,-0.1130371,1.801527,-1.076336,-2.877863
0.06396484,0.9848633,-0.140625,1.908397,-1.015267,-0.04580153
0.07177734,0.9699707,-0.1889648,-0.6183206,-0.4427481,1.80916
0.1025391,0.972168,-0.1577148,-2.70229,-0.3816794,1.534351
0.1264648,0.9804688,-0.1245117,-2.160305,-0.4503817,0.4274809
0.128418,0.9790039,-0.1132813,-0.0610687,-0.6641222,-0.6641222
0.1035156,0.9755859,-0.1311035,0.6717557,-0.5572519,-0.7709923
-eTwist-,-e-,-e-,-e-,-e-,-e-
-sTwist-,-s-,-s-,-s-,-s-,-s-
0.1035156,0.9707031,-0.1398926,-0.8396947,-0.480916,0.2824428
0.109375,0.9621582,-0.1633301,-1.877863,-0.8778625,0.4351145
0.2443848,0.9436035,-0.09106445,-1.335878,-155.374,-13.0687
0.1489258,0.7883301,-0.2575684,-25.58779,-147.1069,-37.03053
-0.0456543,0.9057617,-0.345459,-5.450382,-183.3893,-25.80916
-0.1906738,1.148193,0.0715332,-0.9847328,-248.1832,31.50382
-0.09985352,0.8359375,0.02856445,-32.08397,-233.9618,-21.22901
-0.182373,0.7998047,-0.1687012,-7.480916,-248.1832,40.41985
-0.05126953,1.24585,0.1325684,-14.03053,-199.4886,8.007633
1.113037,0.965332,-0.4873047,-15.34351,-248.1832,-0.3053435
-0.2092285,1.091064,-0.05664063,7.145038,-233.7405,40.23664
0.1787109,0.8342285,-0.1057129,-40.35115,-209.1756,-32.56488
0.005859375,0.8869629,-0.2841797,-1.48855,-248.1832,28.71756
-0.138916,1.281494,0.4099121,-27.67939,-162.916,-42.79389
-0.7363281,0.8154297,0.09204102,-10.8855,152.313,50.75573
0.1848145,0.9638672,-0.06835938,18.58779,224.9924,50.57252
0.1477051,1.034912,0.175293,23.33588,233.0992,60.0458
0.6374512,0.9267578,-0.07128906,26.34351,250.1298,14.15267
0.5334473,0.9909668,-0.2299805,31.69466,241.8855,-0.1221374
0.1721191,1.070557,-0.03442383,35.1832,250.1298,-1.328244
0.2939453,0.9128418,-0.2182617,25.93893,250.1298,-7.603054
0.2412109,1.011963,-0.1147461,29.96183,250.1298,-10.14504
-0.1142578,0.9951172,-0.07373047,20.99237,250.1298,-1.732824
0.7370605,0.9345703,-0.2243652,16.75573,250.1298,-11.61069
0.02783203,0.9912109,-0.2678223,16.24427,250.1298,-1.328244
0.277832,0.9553223,-0.06054688,19.73282,139.2137,-13.1374
0.845459,0.9667969,-0.1616211,7.328244,-23.44275,-47.15267
-0.08178711,1.097412,-0.08251953,-11.41221,-4.938931,-30.22137
-0.1418457,0.9206543,-0.2421875,-7.122138,-1.015267,-12.9084
-0.1955566,0.9912109,-0.08959961,-4.526718,-0.9465649,8.351145
-0.05541992,1.006104,-0.03393555,1.564886,1.847328,18.29771
0.1303711,1.000732,-0.1027832,3.381679,-3.015267,11.89313
0.1530762,0.9587402,-0.1828613,3.70229,0.5572519,8.587787
0.2109375,0.9577637,-0.2346191,-0.3740458,-0.259542,2.709924
0.1601563,0.9697266,-0.1401367,-4.480916,-0.1374046,-4.183206
0.09472656,0.9743652,-0.08959961,-2.122137,-0.3816794,-3.778626
0.07006836,0.9941406,-0.09863281,1.381679,-1.091603,-1.389313
0.05932617,0.9746094,-0.1447754,2.068702,-0.740458,1.305344
0.08496094,0.9741211,-0.1918945,0.0610687,-0.5419847,2.328244
0.1264648,0.9790039,-0.1789551,-2.335878,-0.06870229,1.328244
0.1335449,0.9697266,-0.1408691,-3.129771,-0.4656488,-0.2061069
0.1166992,0.9812012,-0.1088867,-1.21374,-0.5954198,-0.9770992
0.1071777,0.9824219,-0.1193848,0.6259542,-0.740458,-0.8091603
-eTwist-,-e-,-e-,-e-,-e-,-e-
-sTwist-,-s-,-s-,-s-,-s-,-s-
0.1027832,0.9719238,-0.1425781,-0.8396947,-0.3816794,0.07633588
0.09204102,0.9892578,-0.08813477,0.351145,0.2900764,-0.2748091
0.4672852,0.9389648,-0.2124023,-4.770992,-196.3664,-18.70229
-0.08911133,0.8759766,-0.2219238,-31.33588,-141.0305,-44.43512
-0.01660156,0.9082031,-0.3164063,-6.030534,-239.3817,-11.14504
-0.2619629,1.202393,0.2614746,-3.977099,-232.1679,35.49618
0.6174316,0.7687988,-0.1079102,-41.35115,-204.9618,-10.94656
-0.03442383,0.9108887,-0.3166504,-0.4045802,-248.1832,3.389313
-0.1599121,1.125,0.3464355,-15.25191,-197.5038,12.35114
1.368896,1.129639,-0.4516602,-15.46565,-248.1832,-7.030534
-0.1811523,1.256592,-0.1223145,-3.129771,-248.1832,29.89313
0.1550293,0.8374023,-0.2763672,-19.28244,-248.1832,-1.656489
0.03344727,0.9418945,-0.3330078,-19.8855,-248.1832,-6.603054
-0.1923828,0.9343262,0.1467285,-35.45038,-164.8931,-13.45038
-0.6804199,0.7370605,-0.1379395,-11.9771,51.38931,35.99237
-0.0715332,0.9907227,0.09375,10.53435,205.2137,36.70229
0.0847168,1.021729,0.2456055,20.40458,245.0992,67.93893
0.3649902,0.958252,-0.02954102,22.91603,241.5649,8.59542
0.3891602,0.8962402,-0.1638184,29.06107,245.2519,-1.954198
0.107666,1.045898,0.0168457,43.87023,250.1298,-8.236641
0.3227539,0.9897461,-0.1726074,28.06107,240.2214,-11.12977
0.05297852,0.9536133,-0.2167969,23.03053,250.1298,-10.19084
-0.08007813,0.9946289,-0.217041,18.75573,250.1298,-2.549618
0.2561035,0.9431152,-0.1411133,17.51908,250.1298,-9.557252
0.01123047,1.003662,0.05322266,20.51908,250.1298,-7.099236
0.3112793,0.9306641,-0.04663086,14.28244,101.9924,-21.0229
0.6569824,0.9328613,-0.2575684,-0.740458,-19.62595,-53.65649
-0.137207,1.118896,-0.1599121,-9.412213,-7.992366,-30.99237
-0.2021484,0.9240723,-0.3017578,-10.17557,-0.6641222,-8.427481
-0.206543,0.9868164,-0.1303711,-4.778626,-0.0610687,10.99237
-0.03955078,1.012451,-0.08447266,3.274809,0.5954198,15.33588
0.1972656,0.998291,-0.1408691,4.206107,-5.152672,10.65649
0.201416,0.9589844,-0.2250977,-0.1374046,-1.603053,5.862596
0.2172852,0.9589844,-0.2055664,-3.839695,-0.389313,-0.7175572
0.1760254,0.9790039,-0.1313477,-3.748092,-0.2671756,-4.343512
0.1154785,0.9753418,-0.08691406,-1.244275,-0.6870229,-4.374046
0.1218262,0.9753418,-0.1604004,-3.038168,-0.3816794,1.625954
0.1333008,0.9743652,-0.1276855,-2.389313,-0.519084,0.1374046
0.1169434,0.9819336,-0.1154785,-0.04580153,-0.648855,-0.9694656
0.1005859,0.9799805,-0.1398926,0.8015267,-0.6030535,-0.8167939
0.09008789,0.9765625,-0.1691895,0.2671756,-0.519084,0.07633588
0.09033203,0.9729004,-0.1594238,-1.053435,-0.4274809,0.7328244
0.1035156,0.9780273,-0.1472168,-1.923664,-0.4351145,0.870229
-eTwist-,-e-,-e-,-e-,-e-,-e-
-sTwist-,-s-,-s-,-s-,-s-,-s-
0.1086426,0.9733887,-0.1367188,-0.4732824,-0.3816794,-0.06870229
0.1115723,0.9731445,-0.1437988,-0.2442748,-0.2900764,-0.7938931
0.144043,1.027588,-0.04125977,2.053435,-7.145038,1.129771
0.9265137,0.9594727,-0.2963867,-4.59542,-189.0229,-38.74046
-0.2670898,1.279541,0.1884766,-1.236641,-189.5343,17.70992
0.559082,0.848877,-0.3544922,-28.92366,-194.1298,-32.22901
-0.09130859,0.9765625,-0.217041,-1.099237,-248.1832,26.94657
-0.1765137,1.209717,0.3674316,-14.90076,-185.5114,4.458015
1.403564,0.7380371,-0.1257324,-21.43511,-238.7023,-12.32824
-0.1313477,0.864502,-0.2871094,1.603053,-248.1832,42.26717
-0.009033203,1.063477,-0.09448242,-9.778625,-248.1832,4.854962
0.4731445,0.970459,-0.3447266,-16.03053,-248.1832,-9.961832
-0.2097168,1.057129,0.01318359,-5.183206,-248.1832,49.74809
-0.007080078,0.782959,-0.1191406,-35.24427,-248.1832,-6.526718
-0.2746582,1.0271,0.0,-12.67176,8.78626,-25.29771
-0.8850098,0.9560547,0.2617188,6.648855,168.7863,71.20611
0.1040039,0.9536133,0.2397461,11.87023,236.7481,66.55725
0.4528809,1.085938,-0.1635742,20.16031,227.229,14.35114
0.1516113,0.9155273,-0.1293945,28.51908,243.9389,3.740458
0.1025391,0.880127,-0.1274414,28.93893,250.1298,1.122137
0.3920898,0.9255371,-0.3981934,28.47328,231.9542,-11.25954
-0.09887695,0.9621582,-0.2102051,23.31298,250.1298,-2.656489
0.2316895,0.8432617,-0.3718262,14.9084,250.1298,-14.41985
-0.02124023,1.061035,-0.1699219,19.99237,250.1298,-4.473282
0.6040039,1.01416,-0.2368164,13.39695,132.7863,-21.71756
0.6206055,0.8127441,-0.4572754,-3.89313,-26.64886,-68.29771
-0.2924805,1.178955,-0.05712891,1.145038,-1.496183,-22.44275
-0.2114258,0.9904785,-0.07275391,-8.282443,-0.3969466,-5.80916
-0.2158203,0.9282227,-0.144043,-4.152672,0.02290076,14.69466
-0.01416016,0.9741211,-0.046875,4.587786,1.89313,24.10687
0.08886719,0.9868164,-0.1237793,4.648855,0.1984733,17.25191
0.2980957,0.9736328,-0.2194824,2.389313,-3.641221,7.122138
0.2185059,0.9707031,-0.2246094,-2.587786,-0.4580153,2.083969
0.2009277,0.9643555,-0.1706543,-5.78626,-0.2137404,-2.603053
0.1503906,0.9777832,-0.09814453,-2.763359,-0.3664122,-4.656488
0.08642578,0.9882813,-0.07617188,0.8244275,-0.6564885,-3.206107
0.05126953,0.972168,-0.1311035,2.80916,-0.7022901,-0.1755725
0.05688477,0.972168,-0.1865234,1.122137,-0.5267176,1.931298
0.1259766,0.9711914,-0.1748047,-3.145038,-0.4045802,0.9923664
0.1347656,0.9741211,-0.1350098,-2.78626,-0.4580153,-0.2366412
0.1191406,0.9833984,-0.1171875,-0.389313,-0.6183206,-0.9847328
0.1008301,0.9799805,-0.1210938,1.267176,-0.7022901,-0.9007633
0.08691406,0.9797363,-0.1594238,0.1450382,-0.5343512,0.6564885
-eTwist-,-e-,-e-,-e-,-e-,-e-
-sTwist-,-s-,-s-,-s-,-s-,-s-
0.1091309,0.9731445,-0.1489258,-0.4885496,-0.7251908,-0.02290076
0.105957,0.9406738,-0.2258301,-3.687023,-1.549618,1.290076
0.08032227,0.9152832,-0.2075195,-1.068702,-10.43511,-1.290076
1.119141,0.8027344,-0.5170898,-11.00763,-218.8168,-46.83206
-0.3115234,1.078857,0.09790039,-3.946565,-167.8092,-5.10687
0.03198242,0.8596191,-0.3752441,-28.12214,-169.9542,-26.25954
-0.06835938,0.9169922,-0.3442383,-5.206107,-248.1832,33.0687
-0.1166992,1.252686,0.2861328,-14.51145,-205.0153,18.99237
0.255127,0.8081055,-0.4116211,-26.00763,-234.7023,1.931298
-0.01464844,0.9523926,-0.3139648,-2.59542,-248.1832,0.4198473
-0.04248047,0.9699707,-0.1459961,-25.56489,-227.4122,-11.0
0.01660156,0.8259277,-0.4467773,-9.984733,-248.1832,-15.85496
-0.1166992,1.260986,0.1538086,-19.89313,-244.0916,27.28244
-0.003173828,0.6809082,-0.3718262,-28.38931,-239.3817,1.21374
-0.2131348,0.8588867,-0.2182617,-17.24427,-20.12214,-47.41985
0.4580078,0.8708496,-0.1757813,28.25954,230.2137,-0.8854962
0.1101074,1.061279,0.03540039,40.46565,250.1298,-2.282443
0.217041,0.9191895,-0.1574707,29.80916,250.1298,-9.870229
-0.01391602,0.9204102,-0.2451172,24.16794,250.1298,-8.557252
-0.08642578,0.9331055,-0.2077637,15.96947,250.1298,0.4885496
0.2036133,0.9255371,-0.270752,12.83206,250.1298,-8.099236
-0.0534668,0.9772949,-0.03735352,15.70229,250.1298,-3.412214
0.1816406,0.9414063,-0.06005859,15.20611,250.1298,-10.12977
-0.08325195,0.9885254,-0.001953125,23.69466,250.1298,-6.526718
0.9438477,1.07251,-0.04223633,19.36641,-3.587786,-31.19847
0.1894531,0.7629395,-0.3427734,-10.19847,-27.80916,-56.75573
-0.3093262,1.068115,-0.2390137,1.847328,-10.74809,-29.1145
-0.2507324,0.9951172,-0.08544922,-10.21374,-3.374046,-2.458015
-0.1855469,0.9140625,-0.0847168,-6.656488,0.9160305,18.19847
0.03100586,0.9804688,-0.05712891,4.21374,-1.053435,23.23664
0.07495117,0.9924316,-0.09545898,4.236641,-1.877863,29.75573
0.4887695,0.9614258,-0.1896973,1.435114,-3.610687,7.824428
0.2226563,0.9648438,-0.203125,-3.51145,-0.3816794,1.587786
0.1938477,0.9533691,-0.1540527,-4.992366,-0.5572519,-3.076336
0.1499023,0.9753418,-0.09521484,-1.78626,-0.5801527,-5.091603
0.09277344,0.9956055,-0.07739258,1.900763,-1.19084,-3.793893
0.05639648,0.9858398,-0.1352539,2.030534,-0.778626,1.068702
0.08251953,0.9755859,-0.1782227,-1.656489,-0.4961832,2.229008
0.1184082,0.9746094,-0.1535645,-3.160305,-0.6564885,1.770992
0.1384277,0.9770508,-0.1176758,-2.160305,-0.7175572,0.3282443
0.1296387,0.9797363,-0.111084,0.05343511,-0.961832,-0.7480916
0.1169434,0.9750977,-0.140625,0.7938931,-0.6564885,-1.137405
0.09521484,0.9768066,-0.1643066,0.007633588,-0.4732824,-0.4274809
-eTwist-,-e-,-e-,-e-,-e-,-e-
-sTwist-,-s-,-s-,-s-,-s-,-s-
0.1071777,0.9750977,-0.1430664,-1.007634,-0.5114504,0.04580153
0.1074219,1.0,-0.1665039,-0.6564885,-0.3740458,0.2671756
0.470459,0.9377441,-0.1582031,-2.778626,-183.8855,-14.9542
-0.04003906,0.838623,-0.2568359,-31.81679,-166.7557,-40.75573
-0.1975098,0.8310547,-0.2473145,-6.877862,-203.3893,8.465649
-0.002197266,1.123779,-0.002197266,-4.610687,-248.1832,2.977099
-0.2009277,1.108887,0.1984863,-21.55725,-202.6641,-12.07634
0.08056641,0.7585449,-0.4558105,-14.89313,-248.1832,-4.473282
-0.1105957,1.136475,0.006591797,4.503817,-248.1832,13.10687
0.1955566,0.8583984,-0.1074219,-23.89313,-234.2519,-6.572519
0.002685547,0.8095703,-0.4118652,-3.671756,-248.1832,-12.98473
-0.01196289,1.288818,0.1672363,-19.27481,-229.687,3.938931
0.5075684,0.8491211,-0.4211426,-25.30534,-248.1832,-2.312977
-0.1818848,1.075195,0.08691406,-22.98473,-84.17558,-40.45038
-0.703125,0.9272461,0.109375,-9.740458,147.2748,66.51145
0.1308594,0.8242188,-0.1625977,-3.175573,246.4809,38.76336
0.1867676,0.9267578,-0.03076172,23.16031,199.0992,40.16794
0.05517578,1.079834,0.09399414,29.80916,250.1298,13.0458
0.526123,0.895752,-0.2351074,25.36641,248.626,-5.305344
0.2514648,0.9106445,-0.2331543,32.9542,250.1298,-5.328244
0.05224609,0.9560547,-0.1584473,26.29771,250.1298,1.175573
0.2900391,0.8811035,-0.2800293,23.41221,249.0305,-14.12214
-0.07348633,0.9790039,-0.2416992,16.13741,250.1298,-9.335877
0.06030273,0.9450684,-0.2058105,11.84733,250.1298,-12.41221
0.03173828,0.9990234,-0.1760254,16.29771,250.1298,-4.526718
0.7631836,0.9699707,-0.4338379,9.114504,-16.1145,-40.0
0.1318359,0.7468262,-0.4726563,-21.56489,-37.57252,-59.74809
-0.3237305,0.9628906,-0.2744141,3.503817,-12.19084,-35.07634
-0.4233398,1.052979,0.03320313,-1.954198,3.450382,4.435114
-0.1235352,0.907959,-0.07177734,-5.030534,2.351145,18.60305
0.0456543,0.9848633,-0.1035156,4.938931,-0.7557252,24.77863
0.08544922,0.9750977,-0.1403809,3.78626,-1.435114,32.54198
0.3095703,1.014893,-0.2160645,0.1832061,-2.045802,12.25191
0.2092285,0.9489746,-0.2209473,-3.885496,0.1679389,3.541985
0.2194824,0.9726563,-0.1530762,-4.137404,-0.6641222,-1.80916
0.1503906,0.9824219,-0.07763672,-2.21374,-0.5114504,-4.282443
0.09741211,0.9858398,-0.09106445,1.007634,-0.8396947,-3.992366
0.06201172,0.9736328,-0.1347656,2.022901,-0.7633588,-1.541985
0.06542969,0.9621582,-0.1867676,0.4580153,-0.6259542,0.7022901
0.1245117,0.9770508,-0.1247559,0.3740458,-0.6717557,-0.8015267
0.1018066,0.9780273,-0.1489258,0.480916,-0.5877862,-0.6259542
0.09545898,0.9743652,-0.1594238,-0.5114504,-0.4885496,0.09923664
0.09326172,0.9697266,-0.1569824,-1.885496,-0.3435115,0.8167939
-eTwist-,-e-,-e-,-e-,-e-,-e-
-sTwist-,-s-,-s-,-s-,-s-,-s-
0.09545898,0.9750977,-0.1311035,-0.8091603,-0.5801527,0.007633588
0.09741211,1.002441,-0.1003418,0.2061069,0.4580153,-0.4732824
0.1606445,0.9580078,-0.1437988,-1.839695,-176.7023,-11.69466
0.2243652,0.7539063,-0.2993164,-29.03817,-170.5954,-46.48855
-0.2404785,0.8337402,-0.2124023,-4.335878,-239.5649,24.59542
-0.03588867,1.066406,0.0390625,-14.73282,-213.5038,19.53435
0.795166,0.6726074,-0.4436035,-32.14504,-238.5725,-39.25191
-0.1462402,1.002686,-0.140625,-2.59542,-248.1832,34.59542
0.01708984,1.113525,0.1777344,-18.43511,-231.0916,17.0229
0.5166016,0.9118652,-0.4172363,-20.21374,-248.1832,-2.351145
-0.112793,1.148926,-0.170166,5.122138,-248.1832,17.66412
0.3154297,0.6623535,-0.3225098,-30.41985,-248.1832,-12.41985
0.05029297,0.8442383,-0.4558105,-21.76336,-248.1832,-17.0687
-0.1193848,1.359863,0.1523438,-24.54962,-135.8931,-25.31298
-0.744873,1.002686,0.3112793,-10.25954,172.7328,57.71756
0.1904297,0.786377,-0.02050781,2.29771,234.3282,55.9313
0.3400879,1.035889,0.07177734,23.67175,222.9389,19.05343
0.3100586,0.9899902,0.04321289,26.96947,241.6641,12.34351
0.595459,0.9147949,-0.08764648,33.26717,240.1069,-6.259542
0.5576172,1.147461,-0.06225586,40.46565,245.0,-8.145039
0.03369141,0.935791,-0.1694336,24.74809,250.1298,-6.007634
0.3974609,0.8757324,-0.3725586,23.71756,250.1298,-12.35114
-0.006591797,0.9995117,-0.1945801,17.98473,250.1298,-10.30534
0.3103027,0.9628906,-0.342041,10.61832,250.1298,-12.20611
-0.04785156,1.013672,-0.1103516,15.61069,250.1298,-5.351145
0.4411621,0.9428711,-0.1831055,11.80153,146.6336,-19.75573
0.7519531,0.8161621,-0.619873,-5.099236,-30.94657,-61.79389
-0.2260742,1.278809,-0.06591797,-0.08396947,-16.98473,-36.25954
-0.2485352,0.9055176,-0.1796875,-9.801527,-2.648855,-11.59542
-0.2148438,0.9128418,-0.1506348,-5.709924,1.778626,18.70229
0.03295898,0.9921875,-0.046875,3.923664,-0.5877862,25.1145
0.08276367,0.9772949,-0.1320801,2.824427,-2.038168,30.77099
0.4458008,0.9697266,-0.1813965,1.618321,-2.496183,8.221375
0.2177734,0.9660645,-0.2138672,-2.358779,-0.06870229,4.045802
0.2128906,0.965332,-0.1564941,-4.305344,-0.8015267,-1.587786
0.1608887,0.9804688,-0.09765625,-2.198473,-0.5725191,-4.389313
0.1086426,0.9943848,-0.09008789,0.5572519,-1.061069,-4.236641
0.06738281,0.9714355,-0.1386719,1.938931,-1.045802,-1.793893
0.06445313,0.9741211,-0.1813965,0.5496183,-0.6717557,0.6717557
0.08203125,0.9782715,-0.1813965,-1.419847,-0.3816794,1.847328
0.1137695,0.9814453,-0.1408691,-2.793893,-0.2442748,1.343511
0.1230469,0.9785156,-0.1230469,-1.992366,-0.610687,0.2748091
0.123291,0.9768066,-0.1142578,-0.08396947,-0.6564885,-0.778626
-eTwist-,-e-,-e-,-e-,-e-,-e-
-sTwist-,-s-,-s-,-s-,-s-,-s-
0.1135254,0.9794922,-0.1506348,-0.8167939,-0.5343512,0.0610687
0.09814453,1.018311,-0.06542969,1.931298,0.778626,-0.6717557
0.08837891,0.9672852,-0.09692383,-0.03053435,1.183206,-0.7938931
0.6850586,1.012207,-0.2888184,-3.022901,-195.1603,-20.76336
-0.07250977,1.093262,-0.1464844,-31.50382,-160.4504,-42.41221
-0.1445313,0.8347168,-0.3056641,-8.358779,-242.8626,21.0458
-0.09838867,1.163574,0.0871582,-7.38168,-248.1832,35.0
-0.05297852,0.8737793,-0.199707,-36.74809,-224.1679,-34.65649
-0.09838867,0.9072266,-0.171875,0.6412213,-248.1832,25.22901
0.0690918,1.32666,0.2600098,-3.770992,-249.6183,27.46565
0.8669434,0.7858887,-0.2819824,-16.69466,-248.1832,2.175573
-0.1022949,0.8813477,-0.2141113,3.229008,-248.1832,-1.625954
0.1455078,0.9550781,0.0793457,-26.82443,-248.1832,-14.27481
-0.3249512,0.8071289,-0.2614746,-20.20611,70.64886,-12.19084
-0.4768066,0.9824219,-0.003417969,5.862596,168.6183,86.48855
0.1555176,1.081299,0.2524414,5.61832,238.8626,69.55725
0.5803223,0.8286133,-0.06713867,14.52672,207.3359,10.22901
0.4672852,1.002197,0.05957031,31.92366,208.9313,-0.5114504
-0.1184082,1.004883,0.1298828,33.96183,250.1298,7.679389
0.2158203,0.970459,-0.1755371,8.59542,212.3053,-15.80153
0.2351074,0.9775391,-0.1850586,4.458015,158.8321,-21.45038
-0.2729492,1.097656,-0.005859375,8.59542,250.1298,-7.549618
0.1313477,0.7978516,-0.3034668,5.351145,225.3435,-28.41985
-0.1398926,1.052979,-0.02246094,25.80916,221.9084,19.38168
0.5803223,1.037109,-0.1647949,15.69466,51.1145,-15.90076
0.284668,0.8430176,-0.3552246,-0.4427481,-20.81679,-33.41985
-0.2219238,0.9567871,-0.2932129,-5.022901,-19.62595,-12.20611
-0.2263184,0.9873047,-0.1398926,-12.66412,-9.603053,14.16794
0.01171875,1.006104,0.01049805,-5.931298,-19.42748,22.35114
0.3029785,1.009766,-0.0144043,-1.587786,-25.66412,13.09924
0.1203613,0.963623,-0.08227539,1.312977,-16.69466,13.26718
0.144043,0.9611816,-0.138916,3.870229,1.496183,10.43511
0.2727051,0.958252,-0.2116699,0.4503817,-1.633588,1.022901
0.2280273,0.9692383,-0.1787109,-2.473282,-1.396947,-4.541985
0.1525879,0.972168,-0.1335449,-3.755725,-1.030534,-6.732824
0.08618164,0.9892578,-0.09521484,-0.9160305,-1.610687,-4.839694
0.05249023,0.973877,-0.1171875,1.366412,-1.282443,-0.6717557
0.06445313,0.9816895,-0.1643066,1.099237,-0.8015267,1.541985
0.1005859,0.9731445,-0.1687012,-0.7862596,-0.610687,2.10687
0.1142578,0.9682617,-0.1567383,-2.610687,-0.4122138,1.48855
0.1362305,0.9763184,-0.1262207,-2.007634,-0.4961832,0.06870229
0.1347656,0.9772949,-0.1123047,-0.5343512,-0.832061,-0.9847328
0.1071777,0.9812012,-0.1230469,0.4122138,-0.7938931,-0.7022901
-eTwist-,-e-,-e-,-e-,-e-,-e-
-sTwist-,-s-,-s-,-s-,-s-,-s-
0.1162109,0.9833984,-0.140625,-0.4885496,-0.6641222,0.129771
0.1074219,1.006836,-0.09472656,-0.2977099,-0.1755725,-0.06870229
0.1169434,0.9575195,-0.1452637,-1.450382,-1.015267,1.175573
0.1149902,0.9438477,-0.1730957,-1.847328,-90.36641,-8.312977
0.5205078,0.8613281,-0.3466797,-13.66412,-213.1145,-23.57252
-0.01733398,0.9423828,-0.2648926,-15.09924,-227.2595,-42.80916
-0.2841797,0.9772949,-0.03759766,-7.122138,-248.1832,16.00763
0.004638672,0.9023438,-0.2260742,-26.58779,-207.1221,-15.30534
0.1489258,0.7756348,-0.2866211,-21.62595,-248.1832,3.832061
-0.1411133,0.9812012,0.07617188,4.908397,-248.1832,15.22137
0.4108887,0.8520508,-0.1696777,-20.32825,-248.1832,-8.0
0.2714844,1.009521,-0.4570313,-15.77863,-248.1832,-0.9312977
0.04638672,1.109619,-0.2207031,-19.65649,-248.1832,3.778626
0.173584,0.7902832,-0.3928223,-31.16031,-248.1832,-10.43511
-0.248291,0.9772949,-0.0949707,-22.29008,-62.0229,-32.25954
-0.8710938,1.155029,0.3530273,6.641222,145.8321,81.21374
0.1296387,0.8427734,-0.0144043,-4.198473,213.0,54.58779
0.3374023,0.9216309,-0.07055664,19.0687,219.6718,12.14504
0.2888184,1.181641,0.2670898,38.64122,241.3893,4.045802
0.3876953,0.9233398,-0.1796875,22.83206,249.7634,-7.862596
0.4772949,1.034424,-0.0949707,40.32061,238.7863,-12.98473
0.0625,1.0,-0.08984375,27.45038,250.1298,-10.19084
0.2209473,0.9084473,-0.3881836,15.22901,250.1298,-15.8626
-0.05615234,0.9875488,-0.1877441,20.18321,250.1298,-14.09924
0.2890625,0.994873,-0.1113281,11.52672,131.9542,-20.64886
0.8122559,0.7648926,-0.4995117,-2.259542,-44.57252,-61.65649
-0.2397461,1.337646,0.1884766,5.442748,-22.67175,-34.64122
-0.2507324,0.9130859,-0.07250977,-14.60305,1.068702,-13.33588
-0.2358398,0.9414063,-0.1435547,-3.717557,1.206107,13.1145
-0.01953125,1.015869,-0.01953125,5.839694,0.6870229,20.54962
0.06591797,0.9814453,-0.1298828,4.465649,-1.816794,25.84733
0.1101074,0.940918,-0.236084,1.961832,-0.9465649,23.47328
0.2246094,0.9729004,-0.246582,-1.664122,-2.671756,6.152672
0.2277832,0.9865723,-0.1516113,-4.40458,-0.2824428,-0.129771
0.1660156,0.9865723,-0.08789063,-4.236641,0.1374046,-3.083969
0.128418,0.9724121,-0.08178711,-0.9160305,-0.6641222,-4.160306
0.08105469,0.9829102,-0.1008301,2.748092,-1.282443,-1.885496
0.06616211,0.9755859,-0.1628418,2.022901,-0.7633588,0.3053435
0.07617188,0.9672852,-0.190918,-1.21374,-0.7175572,1.503817
0.1057129,0.9731445,-0.1691895,-2.70229,-0.4885496,1.664122
0.1223145,0.9777832,-0.1228027,-2.793893,-0.3129771,0.740458
0.1416016,0.9777832,-0.1154785,-0.9083969,-0.740458,-0.5877862
0.1225586,0.9790039,-0.1245117,1.274809,-0.9312977,-1.022901
-eTwist-,-e-,-e-,-e-,-e-,-e-
-sTwist-,-s-,-s-,-s-,-s-,-s-
0.1120605,0.9812012,-0.140625,-0.7099237,-0.7480916,0.1374046
0.1120605,0.9978027,-0.1518555,-1.664122,-0.3740458,0.5648855
0.09667969,0.942627,-0.1123047,-0.3435115,-0.6030535,0.6564885
1.227783,1.224365,-0.2810059,3.847328,-224.6488,-24.58779
-0.1259766,1.212646,0.01049805,-21.00763,-152.4962,-33.13741
-0.03662109,0.7822266,-0.4353027,-18.77863,-201.3435,-22.24427
-0.2194824,1.098877,0.0,-1.206107,-248.1832,56.10687
-0.07275391,0.9951172,-0.2167969,-30.16794,-215.8321,-21.38931
0.1079102,0.7770996,-0.5185547,-10.37405,-248.1832,5.91603
-0.1704102,1.20874,0.203125,7.801527,-248.1832,43.62595
0.2922363,0.8339844,-0.248291,-20.29008,-248.1832,-13.17557
-0.1464844,0.8776855,-0.1953125,-3.366412,-248.1832,37.64885
0.1079102,0.9472656,-0.203125,-28.74046,-248.1832,-10.22137
0.6525879,0.888916,-0.4223633,-28.74809,-248.1832,-20.07634
-0.1181641,1.178711,-0.1479492,-20.76336,-123.0763,-21.01527
-0.7351074,1.029053,0.2180176,-10.51908,139.4198,61.25954
0.1018066,0.9206543,0.2270508,2.259542,226.4809,55.19847
0.3989258,0.8278809,-0.02172852,17.19084,224.6183,5.503817
0.3688965,1.071533,-0.1293945,34.30534,243.3435,0.4427481
0.3945313,0.96875,-0.2280273,24.92366,221.0916,-9.358779
0.08544922,0.9899902,-0.2712402,29.96183,250.1298,-12.61069
-0.06835938,0.9411621,-0.2346191,25.1145,250.1298,-12.54962
0.2563477,0.9365234,-0.3474121,18.9542,241.3893,-13.0916
0.2995605,1.004883,-0.2302246,15.76336,173.5114,-20.48855
0.5249023,1.020264,-0.3168945,4.679389,59.8855,-32.25191
0.3088379,0.8991699,-0.3361816,-6.839694,-13.77099,-46.9771
-0.2246094,1.060547,-0.0078125,-4.839694,-2.396947,-15.74809
-0.1733398,0.9858398,-0.04467773,-7.007634,-0.8625955,-0.7480916
-0.145752,0.9633789,-0.06884766,-1.480916,0.6870229,13.38168
0.003173828,0.9755859,-0.09130859,4.19084,1.664122,20.41221
0.2097168,0.979248,-0.1801758,4.648855,-5.022901,11.30534
0.1777344,0.9694824,-0.2380371,1.175573,-1.022901,5.954198
0.2050781,0.9594727,-0.2099609,-3.870229,-0.1068702,0.2366412
0.1542969,0.9799805,-0.121582,-4.236641,-0.4427481,-3.641221
0.09692383,0.9765625,-0.06860352,-1.412214,-0.1526718,-3.305344
0.05932617,0.9914551,-0.104248,2.427481,-0.778626,-1.099237
0.06103516,0.9755859,-0.1682129,2.083969,-0.7099237,1.40458
0.09399414,0.96875,-0.2070313,-0.6793893,-0.740458,2.122137
0.1142578,0.979248,-0.1757813,-2.870229,-0.1679389,1.076336
0.1323242,0.9765625,-0.123291,-2.877863,-0.610687,-0.5801527
0.1105957,0.980957,-0.1071777,-0.778626,-0.5038168,-1.114504
0.09545898,0.9787598,-0.1269531,0.9007633,-0.3206107,-0.6717557
0.08300781,0.9794922,-0.1611328,0.648855,-0.7480916,0.08396947
-eTwist-,-e-,-e-,-e-,-e-,-e-
-sTwist-,-s-,-s-,-s-,-s-,-s-
0.1086426,0.9790039,-0.1486816,-0.6183206,-0.6641222,0.351145
0.1176758,0.9318848,-0.2060547,-3.541985,-1.29771,1.21374
0.0847168,0.9125977,-0.2287598,-0.9923664,-1.656489,-0.2519084
1.052002,1.06665,-0.1867676,-0.06870229,-221.2901,-36.86259
-0.2294922,1.208008,0.1818848,-6.259542,-150.7328,-3.816794
0.08691406,0.8164063,-0.5192871,-30.00763,-178.0763,-30.27481
0.05078125,0.7275391,-0.4291992,-18.35114,-248.1832,-4.534351
-0.1733398,1.218018,0.1235352,-3.076336,-248.1832,42.0229
0.4907227,0.8510742,-0.08007813,-24.61832,-239.4198,6.267176
0.2487793,0.918457,-0.4909668,-10.99237,-248.1832,-2.938931
-0.08813477,1.243652,-0.01733398,-18.54198,-213.6794,-10.50382
0.130127,0.9023438,-0.7575684,-24.44275,-248.1832,-15.39695
-0.07226563,1.212891,-0.1096191,-10.87786,-248.1832,9.175572
0.1870117,1.090088,-0.004638672,-30.38168,-248.1832,-1.580153
-0.2758789,1.105469,0.1057129,-20.45038,9.091603,-29.57252
-0.5661621,0.8774414,0.1843262,1.854962,124.4275,60.84733
0.1376953,0.965332,0.1079102,3.885496,197.1374,47.56488
0.2583008,0.9265137,-0.06689453,16.44275,215.4886,15.63359
0.3085938,1.036621,0.02587891,34.73283,250.1298,8.236641
0.3193359,0.8974609,-0.2004395,24.06107,230.5114,-4.351145
0.1730957,0.9604492,-0.359375,26.03817,247.0916,-6.725191
-0.04492188,1.003662,-0.2226563,27.57252,250.1298,-7.877862
0.317627,0.9523926,-0.3095703,19.63359,205.1832,-15.74809
0.1872559,1.037109,-0.2353516,17.73282,235.1069,-1.221374
0.7939453,1.172119,0.1245117,24.16794,17.9084,-21.74809
0.1638184,0.795166,-0.1833496,-3.541985,-25.74809,-50.03053
-0.2978516,1.033691,-0.2592773,2.022901,1.267176,-27.0458
-0.3969727,1.012939,-0.07202148,-5.61832,7.068702,9.519084
-0.04882813,0.9472656,-0.08496094,-5.091603,3.908397,20.48092
0.06152344,0.9504395,-0.1220703,2.847328,1.358779,26.9771
0.09082031,0.9750977,-0.1379395,3.183206,3.282443,20.77863
0.2663574,0.9836426,-0.1894531,1.274809,-1.427481,6.832061
0.2233887,0.9758301,-0.1813965,-1.984733,-0.2519084,1.29771
0.1789551,0.9731445,-0.1479492,-4.59542,-0.3740458,-2.778626
0.1452637,0.9780273,-0.1115723,-2.419847,-0.4122138,-4.366412
0.09277344,0.9855957,-0.09228516,0.9847328,-1.068702,-3.145038
0.06396484,0.9794922,-0.1418457,1.916031,-1.091603,-0.6564885
0.0690918,0.9765625,-0.1799316,0.3053435,-0.7328244,1.534351
0.09082031,0.9682617,-0.1845703,-2.19084,-0.3129771,2.022901
0.1206055,0.9838867,-0.1547852,-2.801527,-0.4198473,1.145038
0.1264648,0.9812012,-0.1188965,-1.259542,-0.6870229,-0.5419847
0.1101074,0.9807129,-0.1130371,0.6946565,-0.5419847,-0.7938931
0.09594727,0.9748535,-0.145752,0.778626,-0.6793893,-0.3587786
-eTwist-,-e-,-e-,-e-,-e-,-e-
-sTwist-,-s-,-s-,-s-,-s-,-s-
0.1049805,0.9680176,-0.1533203,-1.068702,-0.5267176,0.02290076
0.1040039,0.9580078,-0.184082,-2.694656,-0.870229,0.5038168
0.126709,0.9743652,-0.05883789,1.068702,-131.8015,-4.435114
0.3835449,0.546875,-0.232666,-17.96947,-166.4504,-48.96947
-0.2331543,0.9221191,-0.07299805,1.824428,-249.5191,22.71756
-0.0559082,1.016357,0.170166,-18.67175,-172.7405,2.030534
0.08276367,0.7255859,-0.5161133,-15.43511,-243.5191,-16.44275
-0.2058105,1.133789,-0.01879883,0.1221374,-248.1832,42.09924
-0.0390625,0.9072266,0.1547852,-19.80916,-233.9847,5.755725
0.2067871,0.8134766,-0.5478516,-15.90076,-248.1832,1.053435
-0.1577148,1.372559,0.1669922,-10.09924,-239.8092,11.00763
0.5598145,0.9870605,-0.3564453,-19.28244,-248.1832,1.793893
-0.1071777,1.076172,-0.06152344,-9.274809,-248.1832,-2.091603
-0.09521484,1.320801,0.229248,-30.92366,-222.6794,2.312977
-0.2875977,0.996582,0.1479492,-22.35114,105.229,10.27481
0.03051758,0.8830566,-0.05664063,6.442748,158.7939,51.16794
0.1652832,1.040283,0.2429199,19.47328,221.8779,57.74809
0.4291992,1.068115,0.0234375,21.47328,250.1298,17.99237
0.4199219,0.8632813,-0.1762695,29.96183,220.7099,-0.3129771
0.04272461,1.007813,-0.01782227,33.61832,250.1298,-3.122137
0.3945313,0.9052734,-0.3061523,27.1145,231.3969,-13.07634
0.3779297,0.9489746,-0.4367676,18.67175,160.3664,-22.82443
0.1098633,1.001221,-0.4794922,8.732824,212.8473,-39.83206
-0.1950684,0.9140625,-0.2109375,14.75572,241.1527,13.06107
0.04931641,1.03833,-0.03564453,6.076336,250.1298,-2.259542
0.4130859,0.9199219,-0.05859375,12.80916,132.6565,-7.778626
0.9768066,0.8879395,-0.2165527,5.137404,-36.62595,-52.33588
-0.1574707,1.176025,-0.04858398,-3.877863,-2.526718,-34.77099
-0.2250977,0.9106445,-0.2626953,-6.854962,0.2519084,-8.083969
-0.2233887,0.9692383,-0.1740723,-1.839695,-0.2671756,13.32824
0.0009765625,0.982666,-0.08886719,2.091603,2.236641,26.80916
0.1169434,0.9711914,-0.1904297,1.038168,3.923664,11.10687
0.2023926,0.947998,-0.2241211,0.2977099,-2.625954,7.167939
0.2009277,0.9787598,-0.1904297,-1.755725,-0.7709923,1.503817
0.2053223,0.972168,-0.135498,-3.351145,-0.5648855,-2.870229
0.1384277,0.9719238,-0.1074219,-2.396947,-0.6259542,-4.885496
0.08251953,0.9821777,-0.1105957,0.05343511,-0.9465649,-3.366412
0.05908203,0.9880371,-0.1428223,1.343511,-0.778626,-0.6717557
0.05957031,0.982666,-0.171875,0.3740458,-0.4656488,1.679389
0.09692383,0.9711914,-0.1586914,-1.793893,-0.4885496,1.885496
0.1210938,0.9694824,-0.1496582,-2.396947,-0.7099237,1.061069
0.1279297,0.9772949,-0.1264648,-1.068702,-0.4122138,-0.3587786
0.1140137,0.9790039,-0.1315918,-0.04580153,-0.5419847,-0.8473283
-eTwist-,-e-,-e-,-e-,-e-,-e-
-sRotateA-,-s-,-s-,-s-,-s-,-s-
0.09985352,0.970459,-0.1411133,-0.8396947,-0.480916,-0.09923664
0.1071777,0.9763184,-0.1450195,-0.4122138,-0.519084,-0.06870229
0.1379395,0.9929199,-0.1188965,0.4961832,-2.076336,-2.603053
-0.09326172,0.3757324,-0.1408691,60.96947,21.28244,-248.1832
0.01953125,0.8215332,-0.1169434,38.62595,84.93893,-248.1832
-0.2026367,0.480957,0.6948242,66.0229,-21.51145,-248.1832
-0.3579102,0.3898926,-0.3925781,64.68702,-8.442748,-248.1832
-0.661377,0.5673828,-0.703125,46.9313,-33.51908,-248.1832
-1.813232,0.378418,-0.03857422,13.57252,-26.42748,-248.1832
-1.852051,0.675293,-0.2700195,-4.824428,-19.29771,-150.7405
-1.504883,0.684082,-0.08154297,-2.045802,-6.442748,-83.57252
-1.17627,1.002686,0.2253418,-6.656488,3.664122,-35.00763
-0.5053711,0.8852539,-0.01660156,-13.12977,9.694656,-44.90076
-0.5622559,0.8435059,-0.1379395,15.90076,7.80916,-38.8855
-0.5541992,0.8242188,-0.2697754,16.44275,-7.305344,-30.92366
-0.8012695,0.7624512,-0.4040527,-3.335878,-3.679389,-18.09924
-0.8464355,0.6894531,-0.3608398,-12.09924,-1.274809,-5.290076
-0.6853027,0.8339844,-0.1459961,-8.343512,0.1221374,-0.08396947
-0.5280762,0.8569336,-0.07714844,-6.824428,-1.396947,-2.580153
-0.4648438,0.7307129,-0.1420898,8.396947,7.717557,-8.175572
-0.5305176,0.7573242,-0.296875,1.312977,-3.664122,-4.732824
-0.5344238,0.7097168,-0.3422852,-0.7938931,-0.870229,-6.59542
-0.6516113,0.7102051,-0.2922363,-1.259542,-0.7022901,-5.992366
-0.6704102,1.110107,-0.3242188,-32.39695,-14.50382,21.29008
-1.791016,0.7980957,-0.604248,-12.94656,-11.28244,118.3206
-1.984375,0.2006836,-0.6242676,-55.28244,12.92366,250.1298
-1.705322,0.2897949,-0.1645508,-86.9771,0.4274809,250.1298
-0.6530762,0.5991211,0.2819824,-68.94656,-0.6259542,250.1298
-0.3686523,0.5969238,0.1650391,-49.16794,-9.862596,250.1298
-0.1975098,0.4885254,0.1279297,-41.38931,-58.12214,250.1298
0.07080078,0.4072266,-0.1533203,-24.64122,-108.7252,250.1298
-0.07885742,0.8886719,-0.3295898,-1.816794,-22.27481,250.1298
-0.1108398,0.6733398,-0.5239258,-13.07634,-11.46565,250.1298
-0.4526367,0.4763184,-0.1635742,-21.01527,4.015267,250.1298
0.04833984,0.8178711,-0.1142578,-7.015267,-6.526718,250.1298
0.01342773,0.4785156,-0.1010742,-4.183206,-2.061069,250.1298
0.08447266,0.5441895,0.04858398,9.587787,4.587786,250.1298
0.3183594,0.4890137,-0.1381836,9.80916,-1.80916,250.1298
0.3720703,0.5559082,-0.2246094,6.114504,-9.870229,250.1298
0.3198242,0.4401855,-0.2485352,-0.519084,-1.854962,250.1298
0.5334473,0.4628906,-0.2258301,-5.91603,15.03053,250.1298
1.301758,0.40625,-0.5354004,1.931298,35.60305,250.1298
1.999939,0.3955078,-0.114502,-18.61069,13.70992,138.4427
1.999939,0.5471191,0.1694336,-4.480916,-8.625955,51.86259
1.999939,1.156982,0.1508789,1.625954,-7.89313,-100.1985
1.999939,0.675293,0.05175781,0.9465649,-7.122138,-231.4198
1.834717,0.3352051,-0.09545898,5.641222,2.763359,-248.1832
0.7167969,0.4521484,-0.03979492,2.641221,-3.51145,-248.1832
0.4831543,0.6132813,-0.1125488,4.763359,2.900763,-248.1832
0.4445801,0.7045898,-0.3110352,-12.54962,8.625955,-248.1832
0.4755859,0.6152344,-0.06396484,-9.564885,-4.931298,-248.1832
-0.03344727,0.6066895,-0.1894531,-4.0,-4.442748,-248.1832
-0.06054688,0.7724609,0.1027832,-3.152672,10.1374,-248.1832
-0.02294922,0.7937012,-0.1020508,7.091603,-4.396946,-249.9008
-0.6066895,0.8991699,-0.4025879,6.519084,10.54962,-197.8779
-0.9521484,0.3586426,-1.067871,-15.05344,-6.175572,-79.07633
-1.234131,0.9604492,-0.2629395,-18.73282,-4.946565,-9.877863
-0.7695313,1.0271,0.1230469,-23.77099,-10.48855,45.9771
-0.2111816,0.954834,0.08764648,0.03816794,-2.885496,61.26717
-0.03417969,1.177979,0.2004395,3.59542,5.244275,80.70229
0.08959961,0.8981934,-0.0715332,14.8855,-6.961832,81.85497
0.3276367,0.901123,-0.1828613,25.64886,-18.83969,55.05344
-eRotateA-,-e-,-e-,-e-,-e-,-e-
-sRotateA-,-s-,-s-,-s-,-s-,-s-
0.1103516,0.9799805,-0.1594238,-0.5648855,-0.6641222,0.4427481
0.1071777,0.9824219,-0.1057129,-1.59542,-0.7557252,-0.519084
0.1403809,0.9797363,-0.1479492,-1.152672,1.793893,-6.274809
1.964355,0.970459,-0.05444336,4.862596,-38.75573,-128.0916
1.999939,0.8183594,-0.3022461,-20.35878,2.526718,-248.1832
1.602539,0.7165527,0.002197266,16.92366,-7.282443,-248.1832
-0.1174316,0.3417969,-0.09887695,41.30534,28.48855,-248.1832
-0.04589844,0.5,-0.1574707,39.24427,137.9237,-248.1832
-1.984375,0.7468262,-0.4108887,-13.0687,-11.08397,-246.542
-1.984375,0.8356934,0.01391602,-14.58015,-10.72519,-92.67939
-1.361816,0.9787598,0.3093262,10.24428,14.1374,-39.43512
-0.6113281,0.7844238,-0.05273438,1.435114,9.320611,-38.01527
-0.532959,0.8417969,-0.1240234,30.35114,8.328244,-37.46565
-0.4489746,0.7231445,-0.3618164,2.0,-4.664122,-36.00763
-0.8701172,0.7973633,-0.2714844,6.656488,1.351145,-19.80916
-0.737793,0.692627,-0.3688965,-10.9084,-3.0,-10.41221
-0.7575684,0.7824707,-0.2011719,-6.167939,-0.9923664,1.221374
-0.6416016,0.7834473,-0.1560059,-2.877863,-1.183206,5.305344
-0.5541992,0.7451172,-0.1784668,1.656489,0.9541985,2.473282
-0.5563965,0.7978516,-0.1923828,4.763359,2.603053,1.137405
-0.5490723,0.7619629,-0.2668457,0.389313,-1.48855,-0.9465649
-0.5715332,0.7614746,-0.2814941,-2.961832,-1.274809,-1.984733
-0.6137695,0.7729492,-0.213623,-3.496183,-1.419847,-0.4580153
-1.042969,1.294922,-0.175293,-25.10687,-13.24428,33.82443
-1.984375,0.6013184,-0.6989746,-12.82443,-3.282443,159.8092
-1.984375,0.4003906,-0.1025391,-59.85496,-7.587786,250.1298
-1.202148,0.4206543,-0.04760742,-51.57252,1.068702,250.1298
-0.1203613,0.8251953,0.4643555,-61.58779,-33.50382,250.1298
-0.1821289,0.2133789,-0.02856445,-38.38931,-64.06107,250.1298
0.0480957,0.7709961,0.03808594,-29.81679,-27.0458,250.1298
-0.0002441406,0.456543,-0.3659668,2.51145,-21.80153,250.1298
-0.1882324,0.5317383,-0.1403809,7.480916,-19.52672,250.1298
-0.168457,0.8474121,-0.4377441,-4.770992,-3.099237,250.1298
-0.4133301,0.4404297,-0.286377,-17.96183,-8.755725,250.1298
0.03588867,0.7189941,-0.1630859,-6.053435,0.02290076,250.1298
0.0559082,0.6472168,0.0222168,-4.10687,-5.152672,250.1298
0.1489258,0.4536133,-0.1315918,1.824428,-1.900763,250.1298
0.2775879,0.5976563,-0.03930664,7.885496,-4.022901,250.1298
0.3835449,0.4921875,-0.2380371,6.656488,-8.450381,250.1298
0.2990723,0.4541016,-0.2226563,-0.06870229,-5.954198,250.1298
0.4604492,0.4052734,-0.2148438,-8.641221,5.587786,250.1298
1.18042,0.3764648,-0.5397949,3.687023,11.84733,250.1298
1.999939,0.4033203,-0.2268066,-15.32824,3.923664,125.1145
1.950439,0.5270996,0.04394531,-11.65649,-5.351145,44.21374
1.397949,1.045166,0.09570313,-12.56489,-15.75572,-41.80153
1.999939,0.7810059,-0.1540527,14.72519,6.793893,-173.9389
1.999939,0.3718262,-0.0480957,9.908397,-10.51908,-248.1832
1.23291,0.4560547,0.07324219,1.610687,-4.740458,-248.1832
0.3486328,0.4453125,-0.1713867,-3.183206,-5.938931,-248.1832
0.5024414,0.6303711,-0.1452637,3.717557,1.175573,-248.1832
0.2875977,0.6196289,-0.3762207,-8.473283,7.274809,-248.1832
0.1733398,0.6560059,-0.1489258,-20.39695,-5.21374,-248.1832
-0.1293945,0.7041016,0.008544922,-3.954198,7.801527,-248.1832
-0.04833984,0.7702637,-0.04125977,0.3282443,0.5725191,-248.1832
-0.3693848,0.9335938,-0.1357422,15.57252,23.71756,-248.1832
-0.9909668,1.134277,-0.4169922,-1.664122,-10.51145,-161.5267
-1.836182,0.9916992,-0.1108398,-36.84733,25.13741,-62.13741
-1.018555,0.8615723,-0.2277832,-17.77863,-1.122137,13.77863
-0.4797363,1.05249,0.2277832,-3.633588,3.389313,48.12977
-0.1958008,0.9694824,0.142334,6.671756,9.312977,71.16031
0.1108398,0.791748,-0.09423828,11.66412,-10.66412,92.83969
0.6713867,1.191162,0.04663086,27.14504,-16.07634,55.41221
-eRotateA-,-e-,-e-,-e-,-e-,-e-
-sRotateA-,-s-,-s-,-s-,-s-,-s-
0.1044922,0.9780273,-0.1350098,-0.4045802,-0.6030535,-0.2748091
0.09130859,0.9682617,-0.1345215,-0.5419847,-0.2061069,0.3129771
0.1311035,0.963623,-0.1982422,-0.9847328,-2.931298,-0.1679389
1.143066,0.7687988,-0.5805664,0.3740458,11.74809,-97.9313
1.999939,0.6772461,-0.6757813,2.374046,-30.62595,-241.2366
1.999939,0.7341309,-0.05004883,-6.519084,-17.77099,-248.1832
0.2189941,0.5219727,0.1694336,25.57252,11.12214,-248.1832
-0.05200195,0.2751465,-0.008789063,47.33588,86.98473,-248.1832
-0.05639648,1.074463,1.117432,45.62595,-13.41221,-248.1832
-0.3227539,0.6931152,-0.1833496,45.62595,-12.9084,-248.1832
-0.4128418,0.4680176,-0.2272949,30.85496,-6.816794,-248.1832
-1.001953,0.03637695,-0.4211426,42.99237,-23.58779,-248.1832
-1.984375,0.2885742,-0.5769043,7.587786,-10.25954,-207.3817
-0.388916,0.9104004,-0.02319336,26.54198,-2.694656,-36.01527
-0.420166,0.7976074,-0.2365723,4.824428,-10.17557,-45.51908
-0.8544922,0.7819824,-0.2468262,17.00763,4.755725,-23.05343
-0.7446289,0.7312012,-0.420166,-9.312977,-10.39695,-7.251908
-0.7165527,0.6914063,-0.2390137,-19.49618,-2.656489,2.0
-0.6870117,0.7937012,-0.1369629,-4.389313,-0.7862596,7.480916
-0.550293,0.7836914,-0.1062012,-8.152672,1.450382,6.114504
-0.5180664,0.7895508,-0.1374512,0.5877862,0.9465649,2.526718
-0.5102539,0.791748,-0.2080078,1.648855,-0.4732824,-1.625954
-0.5808105,1.010986,-0.4111328,-24.51145,-10.16031,14.79389
-1.984375,1.118896,-0.2441406,-18.93893,-9.396947,139.6718
-1.984375,0.4428711,-0.2348633,-65.75572,17.84733,250.1298
-1.984375,0.6120605,-0.07055664,-70.8855,6.740458,250.1298
-0.6181641,0.3662109,-0.177002,-42.46565,8.839695,250.1298
-0.1779785,0.5583496,-0.1196289,-26.58779,-25.25191,250.1298
-0.1188965,0.814209,-0.01123047,-45.44275,-25.01527,250.1298
0.07348633,0.484375,-0.2702637,5.160306,-49.48855,250.1298
-0.09765625,0.75,-0.4562988,6.21374,-16.32825,250.1298
-0.1513672,0.5915527,-0.515625,-5.877862,-9.511451,250.1298
-0.2248535,0.4836426,-0.2995605,-3.335878,1.40458,250.1298
-0.02099609,0.7050781,-0.2573242,-14.19084,-8.305344,250.1298
0.04223633,0.473877,-0.1296387,-8.793893,-0.1450382,250.1298
0.1464844,0.578125,0.03173828,-0.09160305,-0.832061,250.1298
0.2480469,0.4912109,-0.2126465,2.854962,-4.229008,250.1298
0.3586426,0.5522461,-0.1086426,6.633588,-11.45802,250.1298
0.3044434,0.4794922,-0.2385254,3.267176,-6.08397,250.1298
0.4118652,0.4750977,-0.1911621,-0.961832,2.29771,250.1298
1.226563,0.7241211,-0.2763672,10.20611,-13.20611,250.1298
1.999939,0.4602051,-0.2041016,-21.21374,1.015267,180.3512
1.999939,0.4204102,0.0222168,-9.671756,-2.610687,68.67175
1.078613,0.697998,0.09521484,-14.83206,-9.511451,31.27481
1.593262,1.067383,-0.1481934,-0.4503817,-4.053435,-78.39695
1.999939,0.4555664,-0.1096191,17.40458,0.9847328,-214.626
1.999939,0.1940918,-0.08764648,9.496183,7.89313,-248.1832
0.817627,0.4140625,-0.3203125,-1.526718,-6.641222,-248.1832
0.2453613,0.4453125,-0.2861328,6.89313,8.839695,-248.1832
0.2321777,0.6730957,-0.2788086,-4.480916,8.335877,-248.1832
0.28125,0.590332,-0.2172852,-6.389313,8.419847,-248.1832
-0.159668,0.5483398,-0.04174805,-0.3664122,7.030534,-248.1832
0.003417969,0.6723633,-0.08154297,0.2900764,3.160305,-248.1832
-0.2099609,1.061523,-0.1867676,-0.648855,-2.412214,-248.1832
-0.6401367,0.9104004,-0.3310547,-0.09923664,25.77863,-183.8779
-0.5891113,0.3701172,-0.8046875,-13.01527,-20.78626,-86.59542
-1.328369,0.9008789,-0.1828613,-19.80916,-5.847328,-9.862596
-0.7536621,1.059814,0.07714844,-23.46565,-11.59542,43.9771
-0.2932129,0.829834,-0.01879883,-4.473282,0.2366412,63.52672
-0.08227539,1.030273,0.008544922,-0.1984733,11.56489,81.20611
0.1108398,0.9147949,-0.1867676,14.70229,-15.06107,89.84733
0.2783203,0.9941406,-0.123291,29.24427,-20.16794,56.84733
-eRotateA-,-e-,-e-,-e-,-e-,-e-
-sRotateA-,-s-,-s-,-s-,-s-,-s-
0.1052246,0.970459,-0.1633301,-0.259542,-0.5419847,0.389313
0.1101074,0.954834,-0.1479492,-1.603053,0.2137404,0.5572519
0.1188965,0.9433594,-0.1391602,-0.6030535,3.40458,-5.793893
1.389648,1.0354,-0.009765625,0.04580153,-43.15267,-127.6107
1.999939,0.9311523,-0.3574219,-12.15267,3.59542,-248.1832
1.775391,0.7470703,0.220459,11.83969,11.73282,-248.1832
-0.1594238,0.315918,0.1008301,46.92366,30.63359,-248.1832
0.07519531,0.40625,-0.472168,57.35878,217.4046,-248.1832
0.1223145,0.9152832,0.04614258,73.62595,-20.80916,-248.1832
-0.3925781,0.5498047,-0.06860352,49.8168,-5.0,-248.1832
-0.6853027,0.2973633,-0.6484375,23.98473,-30.82443,-248.1832
-1.984375,1.059082,0.1687012,17.65649,-5.19084,-248.1832
-1.984375,0.4006348,-0.4943848,-47.93893,-23.38931,-140.7634
-1.69751,0.7573242,-0.1674805,-19.73282,-3.152672,-60.70992
-1.052246,0.8615723,0.05200195,-7.473282,14.45038,-19.94657
-0.4123535,0.8986816,-0.03369141,22.08397,18.91603,-27.32061
-0.3056641,0.920166,0.003417969,6.480916,-13.0458,-40.20611
-0.5622559,0.8347168,-0.3400879,20.38168,15.62595,-38.34351
-0.7341309,0.7531738,-0.2956543,12.73282,-0.9923664,-25.98473
-0.5595703,0.8220215,-0.1218262,2.778626,3.335878,2.641221
-0.5183105,0.798584,-0.1391602,3.167939,1.198473,-3.045802
-0.534668,0.7446289,-0.2375488,5.160306,1.091603,-9.366412
-1.052979,1.3396,-0.008789063,-20.94657,-14.0916,40.59542
-1.984375,0.3232422,-0.7387695,-18.58015,-0.6793893,171.0076
-1.984375,0.7265625,0.1477051,-63.42748,11.26718,250.1298
-1.800781,0.5273438,0.01904297,-56.51908,13.66412,250.1298
-0.3693848,0.2277832,-0.3989258,-32.94656,-15.96183,250.1298
-0.2102051,0.494873,0.1599121,-44.36641,-49.80916,250.1298
0.1071777,0.6796875,0.006835938,-40.61069,-19.94657,250.1298
0.01977539,0.5415039,0.208252,16.55725,-23.00763,250.1298
-0.09985352,0.9072266,-0.5195313,11.72519,-20.05343,250.1298
-0.1201172,0.5769043,-0.4697266,-5.068702,-12.29771,250.1298
-0.2143555,0.4929199,-0.3684082,-0.8396947,2.557252,250.1298
-0.1018066,0.7214355,-0.253418,-13.87786,-9.007633,250.1298
0.01220703,0.4680176,-0.1083984,-9.076336,2.381679,250.1298
0.1403809,0.5598145,0.04467773,-1.572519,0.02290076,250.1298
0.3044434,0.46875,-0.08178711,4.091603,-2.580153,250.1298
0.324707,0.5393066,-0.1203613,7.320611,-11.38931,250.1298
0.309082,0.4536133,-0.2304688,3.931298,-5.206107,250.1298
0.4729004,0.3969727,-0.2233887,-6.732824,17.25954,250.1298
1.537354,0.2456055,-0.682373,0.7099237,14.9084,250.1298
1.999939,0.3388672,-0.1975098,-21.62595,9.572519,137.6718
1.999939,0.4614258,0.01074219,-13.77099,-3.099237,45.30534
0.7653809,0.7260742,-0.1660156,-12.22901,22.57252,-20.99237
1.973877,0.8898926,-0.1335449,14.00763,0.8396947,-118.5802
1.999939,0.1838379,-0.3735352,8.763359,1.549618,-248.1832
1.81665,0.2946777,-0.04516602,4.206107,-5.114504,-248.1832
0.6396484,0.3464355,-0.1630859,1.908397,-12.32061,-248.1832
0.2319336,0.5390625,-0.2072754,8.145039,11.39695,-248.1832
0.2470703,0.5966797,-0.3764648,-4.755725,10.37405,-248.1832
0.1884766,0.6274414,-0.2399902,-4.969466,8.374045,-248.1832
-0.1604004,0.6572266,-0.02880859,-1.832061,1.793893,-248.1832
-0.02880859,0.6691895,-0.06005859,-1.328244,1.877863,-248.1832
-0.3891602,0.9365234,-0.1159668,14.48092,23.58015,-248.1832
-0.9089355,1.123291,-0.359375,-5.358778,-6.610687,-164.7939
-1.822754,1.023682,-0.1494141,-30.41221,21.29771,-57.23664
-0.734375,1.069336,0.1044922,-10.37405,-8.59542,48.13741
-0.2885742,0.7854004,0.02124023,-5.954198,1.473282,72.43511
0.02612305,1.551514,0.447998,18.78626,4.70229,95.31298
0.1276855,0.9299316,0.06860352,11.54198,-12.54198,62.56488
0.2331543,0.9016113,-0.2661133,22.87786,-17.03053,65.70229
0.7924805,0.9685059,-0.2412109,18.9771,-3.641221,12.79389
-eRotateA-,-e-,-e-,-e-,-e-,-e-
-sRotateA-,-s-,-s-,-s-,-s-,-s-
0.1057129,0.979248,-0.1530762,-0.3816794,-0.5648855,0.648855
0.1550293,0.9750977,-0.1723633,-1.374046,-0.7099237,-2.572519
1.999939,0.8662109,0.04370117,5.564886,-47.36641,-115.5649
1.999939,0.7741699,-0.3762207,-15.12214,-1.343511,-248.1832
1.999939,0.722168,0.1113281,6.946565,-8.358779,-248.1832
-0.05834961,0.4526367,0.01147461,33.17557,24.41985,-248.1832
-0.03637695,0.3491211,-0.2143555,46.64885,188.7939,-248.1832
0.04418945,0.6796875,0.1188965,67.73283,-22.53435,-248.1832
-0.3986816,0.7062988,0.002197266,37.48855,-4.885496,-248.1832
-0.6794434,0.3774414,-0.2553711,24.0229,-38.56488,-248.1832
-1.984375,0.9711914,-0.4594727,-16.83206,-11.0916,-243.3512
-1.984375,0.3217773,-0.6462402,-32.60305,-14.43511,-134.6565
-1.975098,0.8493652,0.08544922,-5.839694,5.091603,-57.38168
-1.035645,0.7333984,-0.07763672,-0.8854962,19.64122,-22.22901
-0.4865723,0.9243164,0.01416016,26.54198,17.41985,-23.9313
-0.3427734,0.925293,-0.02392578,3.076336,-12.0458,-36.78626
-0.6057129,0.7971191,-0.3288574,19.18321,7.053435,-29.15267
-0.7700195,0.7575684,-0.3081055,3.137405,0.1984733,-20.96947
-0.8000488,0.6855469,-0.4033203,-10.50382,-3.748092,-4.374046
-0.7363281,0.6938477,-0.2636719,-11.74809,-3.618321,3.229008
-0.6540527,0.802002,-0.09790039,-4.91603,2.053435,4.114504
-0.5358887,0.8120117,-0.09228516,0.04580153,2.648855,1.083969
-0.5214844,0.845459,-0.2353516,-10.25954,-10.47328,12.51145
-1.625977,1.117188,0.04003906,4.038168,-12.89313,97.74046
-0.1723633,0.418457,0.1350098,-39.51908,-80.96183,250.1298
0.09375,0.6938477,-0.08227539,-21.87023,-17.80153,250.1298
0.008789063,0.5615234,0.213623,10.66412,-78.17558,250.1298
-0.09790039,0.4477539,-0.1662598,23.23664,1.251908,250.1298
-0.151123,0.8510742,-0.2636719,0.7709923,1.007634,250.1298
-0.2165527,0.434082,-0.5917969,-11.22137,-16.12977,250.1298
-0.08032227,0.5603027,-0.1147461,-14.61832,-4.725191,250.1298
0.1191406,0.6196289,-0.04638672,-8.442748,0.5343512,250.1298
0.2043457,0.5917969,0.09130859,-5.412214,-8.114504,250.1298
0.2307129,0.4543457,-0.04077148,0.3587786,-3.351145,250.1298
0.3308105,0.4667969,-0.2202148,6.076336,-8.656488,250.1298
0.3173828,0.4758301,-0.1257324,5.374046,-8.0,250.1298
0.7155762,0.345459,-0.3105469,-9.221375,5.78626,250.1298
1.741699,0.3066406,-0.5041504,-2.694656,17.07634,250.1298
1.999939,0.378418,-0.1027832,-13.74046,1.091603,120.4122
1.976563,0.5432129,0.0246582,-13.30534,-2.541985,42.43512
0.5354004,0.6525879,-0.3024902,-5.969466,-6.923664,41.0229
0.4047852,1.037109,0.01586914,-1.030534,-2.351145,49.22901
0.7583008,0.6381836,-0.2602539,12.71756,1.694656,47.25954
1.24585,0.5974121,-0.3876953,-1.274809,0.1221374,15.74046
1.1604,0.637207,-0.3430176,-16.27481,24.85496,-49.68702
1.999939,0.6359863,-0.2634277,-1.587786,15.03817,-162.1679
1.999939,0.3950195,0.1853027,-7.412214,-7.854962,-248.1832
1.750488,0.4055176,-0.03417969,-0.870229,-14.65649,-248.1832
0.5522461,0.4919434,-0.1071777,-6.022901,1.412214,-248.1832
0.3000488,0.6479492,-0.1604004,13.78626,2.770992,-248.1832
0.2922363,0.5202637,-0.08032227,7.10687,5.648855,-248.1832
0.5649414,0.612793,-0.3037109,0.5343512,-7.984733,-248.1832
-0.01464844,0.5717773,-0.2514648,9.183207,5.839694,-248.1832
-0.06982422,0.8005371,-0.1105957,-0.1908397,18.17557,-248.1832
-0.1181641,0.8391113,-0.1396484,2.244275,-4.725191,-248.1832
-0.5239258,0.8222656,-0.2351074,8.335877,26.64886,-214.5038
-0.784668,0.9938965,-0.2722168,16.48855,-2.175573,-125.2595
-1.297607,1.155029,-0.1628418,-17.92366,5.503817,-23.67939
-0.9611816,0.8959961,-0.04077148,-35.46565,-2.015267,37.76336
-0.3427734,0.8308105,-0.002197266,-8.267176,2.053435,73.68702
-0.02099609,1.695801,0.369873,2.80916,7.748092,94.85497
0.1027832,0.9008789,0.06616211,10.48855,-13.8626,68.66412
-eRotateA-,-e-,-e-,-e-,-e-,-e-
-sRotateA-,-s-,-s-,-s-,-s-,-s-
0.1049805,0.9709473,-0.1394043,-0.9083969,-0.5038168,0.3358779
0.1135254,0.9626465,-0.1745605,-0.07633588,1.312977,-0.7328244
0.2214355,0.6804199,-0.1000977,12.15267,55.74046,-124.374
1.741211,0.8190918,-0.4418945,7.496183,-22.0229,-209.8855
1.999939,0.9284668,-0.00390625,-0.259542,39.61069,-248.1832
0.8144531,0.2563477,-0.07055664,14.96183,8.702291,-248.1832
-0.03955078,0.2788086,-0.1955566,45.51145,51.67939,-248.1832
-0.07666016,0.1972656,0.175293,97.0687,-17.58015,-248.1832
-0.1896973,0.5776367,-0.2272949,57.78626,-13.42748,-248.1832
-0.418457,0.3293457,-0.5852051,43.05344,-9.664123,-248.1832
-0.8847656,0.8051758,-0.3151855,21.67939,-49.28244,-248.1832
-1.984375,0.7937012,-0.3708496,14.73282,-20.30534,-223.1069
-1.984375,0.6738281,-0.2250977,-19.63359,-2.160305,-53.86259
-0.826416,0.6755371,-0.2111816,-0.9541985,20.20611,-24.77099
-0.4318848,0.9882813,0.1032715,25.38931,2.755725,-31.93893
-0.3789063,0.888916,-0.02270508,7.0,-10.52672,-42.05344
-0.6884766,0.7131348,-0.4033203,10.96183,18.26718,-31.91603
-0.7705078,0.6933594,-0.364502,-0.5801527,-6.78626,-16.28244
-0.8891602,0.6762695,-0.4016113,-1.564886,3.954198,-2.763359
-0.7602539,0.7937012,-0.2819824,-10.43511,-3.503817,9.358779
-0.5976563,0.793457,-0.1408691,-4.61832,-2.236641,8.122137
-0.5566406,0.7883301,-0.1176758,-1.687023,2.007634,5.48855
-0.7487793,1.241455,-0.09106445,-20.39695,-9.473283,34.66412
-1.879639,0.864502,-0.5402832,6.877862,2.770992,153.0534
-1.984375,0.6464844,-0.01318359,-58.82443,15.63359,250.1298
-1.984375,0.5290527,-0.0715332,-60.12977,9.007633,250.1298
-0.5014648,0.04614258,-0.394043,-34.41221,-14.99237,250.1298
-0.2585449,0.5952148,0.3928223,-49.47328,-45.72519,250.1298
-0.04736328,0.3591309,-0.02001953,-43.55725,-25.16794,250.1298
0.03759766,0.670166,0.3371582,7.954198,-68.57252,250.1298
-0.08837891,0.4399414,-0.2016602,-14.51908,1.435114,250.1298
0.1516113,0.6359863,-0.02929688,-7.770992,-5.580153,250.1298
0.2275391,0.5268555,-0.04101563,-7.847328,-6.946565,250.1298
0.3520508,0.564209,-0.03588867,-1.847328,-7.824428,250.1298
0.2529297,0.4533691,-0.2148438,5.61832,-4.877862,250.1298
0.3242188,0.4587402,-0.1640625,5.312977,-9.007633,250.1298
0.6394043,0.3820801,-0.2958984,-12.72519,8.259542,250.1298
1.999939,0.2805176,-0.621582,-1.778626,15.12214,250.1298
1.999939,0.5100098,-0.1540527,-16.79389,-5.129771,109.771
1.999939,0.4890137,0.0168457,-15.70229,-0.05343511,31.9771
0.519043,0.6652832,-0.291748,-9.259542,-5.931298,30.48092
0.4250488,1.070313,0.08398438,3.396947,-4.549618,40.69466
0.3898926,0.71875,-0.08544922,17.25191,-6.10687,60.09924
0.7016602,0.7561035,-0.2177734,10.17557,-2.458015,42.32824
1.999939,0.8378906,-0.4892578,13.61832,2.748092,-91.23664
1.999939,0.314209,-0.276123,-26.57252,-3.564885,-248.1832
1.999939,0.2670898,0.006347656,-20.59542,-8.183207,-248.1832
0.4245605,0.463623,0.2194824,-12.22137,11.32061,-248.1832
0.1125488,0.6135254,-0.1479492,7.625954,1.648855,-248.1832
0.201416,0.7868652,0.07373047,15.70229,3.129771,-248.1832
0.3640137,0.5407715,-0.2687988,3.229008,-7.717557,-248.1832
-0.08935547,0.5341797,-0.3640137,17.96947,6.244275,-248.1832
-0.0402832,0.7634277,-0.2216797,-2.633588,14.10687,-248.1832
0.06152344,0.8583984,-0.3427734,2.900763,-0.4656488,-249.6412
-0.4133301,0.9794922,-0.09082031,2.465649,11.80153,-230.0458
-0.9638672,1.033447,-0.3764648,-16.10687,-8.740458,-134.9084
-1.356689,0.5126953,-0.1816406,-44.10687,7.160306,-52.64122
-1.016357,1.012207,0.03662109,-16.37405,-3.496183,18.31298
-0.5195313,1.05957,0.07788086,-2.381679,-0.4122138,52.61069
-0.2333984,0.8547363,0.1223145,5.984733,2.51145,78.21374
0.135498,0.9299316,-0.215332,20.70229,-13.73282,101.7557
0.3635254,1.17627,0.02148438,17.48855,-14.78626,51.60305
-eRotateA-,-e-,-e-,-e-,-e-,-e-
-sRotateA-,-s-,-s-,-s-,-s-,-s-
0.1086426,0.9709473,-0.1569824,-1.061069,-0.6641222,0.2900764
0.1152344,0.9985352,-0.09692383,-1.580153,-0.8473283,-1.343511
0.09936523,0.8830566,0.03491211,14.18321,48.51145,-97.59542
1.447754,0.9777832,-0.3312988,7.984733,-18.24427,-187.2519
1.999939,0.9291992,0.05883789,-8.396947,44.64122,-248.1832
1.084229,0.4116211,0.1384277,19.41221,11.06107,-248.1832
-0.07885742,0.2150879,-0.1882324,44.9084,33.47328,-248.1832
0.05737305,0.4436035,-0.5678711,83.9313,220.5191,-248.1832
-0.01171875,0.6638184,-0.09082031,69.22137,-19.79389,-248.1832
-0.4099121,0.3303223,-0.1413574,47.00763,2.206107,-248.1832
-0.9204102,0.5361328,-0.1933594,18.32825,-39.80153,-248.1832
-1.984375,1.255859,-0.5842285,-11.80916,-11.45038,-231.1069
-1.984375,0.5014648,-0.359375,-31.28244,-5.89313,-121.5038
-1.881104,0.7541504,0.03466797,-5.236641,10.21374,-47.0229
-1.003418,0.7224121,-0.05664063,-11.66412,21.55725,-18.74809
-0.3393555,0.9770508,0.07299805,19.45038,2.748092,-28.80916
-0.3254395,0.9116211,0.003173828,0.2442748,-15.61832,-40.99237
-0.6103516,0.7265625,-0.2907715,11.72519,7.549618,-35.29008
-0.7666016,0.7050781,-0.3581543,0.05343511,-8.526717,-20.60305
-0.9228516,0.7109375,-0.4465332,14.91603,6.007634,-3.755725
-0.8049316,0.7419434,-0.2458496,-15.79389,-6.099236,7.946565
-0.6623535,0.802002,-0.1489258,-7.061069,-3.167939,8.824428
-0.5612793,0.7839355,-0.1154785,-3.633588,2.580153,7.580153
-0.9099121,1.365479,0.003662109,-13.56489,-4.572519,43.0458
-1.909912,0.5256348,-0.5085449,7.122138,4.694656,159.0687
-1.984375,0.5678711,0.1308594,-58.55725,11.81679,250.1298
-1.807861,0.3852539,-0.3432617,-49.52672,10.10687,250.1298
-0.3972168,0.2526855,-0.328125,-34.45802,-29.83969,250.1298
-0.2612305,0.5075684,0.1281738,-43.13741,-48.96947,250.1298
-0.02832031,0.6931152,0.03491211,-37.44275,-35.19847,250.1298
0.02441406,0.5529785,0.3449707,10.82443,-85.09924,250.1298
0.03198242,0.8706055,-0.2766113,14.77863,-4.946565,250.1298
-0.1433105,0.5319824,-0.5141602,-3.396947,-10.15267,250.1298
-0.2390137,0.5412598,-0.3330078,-3.503817,-1.244275,250.1298
-0.03979492,0.6894531,-0.3081055,-14.56489,-9.923664,250.1298
0.2956543,0.4804688,-0.1757813,4.748092,-6.770992,250.1298
0.3288574,0.40625,-0.2626953,3.419847,-5.419847,250.1298
0.9187012,0.5092773,-0.3791504,-9.305344,-6.0,250.1298
1.999939,0.3828125,-0.5300293,-12.54198,4.305344,243.458
1.999939,0.5551758,-0.01147461,-14.45802,-5.312977,96.74046
1.689697,0.3999023,-0.03930664,-14.63359,-2.633588,35.31298
0.6682129,0.7436523,-0.1044922,-8.183207,-3.847328,33.83206
0.4121094,0.9956055,0.07324219,10.0687,-5.687023,46.14504
1.116211,0.9157715,0.02294922,14.89313,14.16794,-19.84733
1.999939,0.1201172,-0.824707,18.44275,7.549618,-172.4427
1.999939,0.1367188,-0.2912598,-8.358779,2.198473,-248.1832
1.234619,0.1152344,0.01342773,-24.89313,-12.0916,-248.1832
0.3359375,0.7021484,0.3344727,10.70229,7.854962,-248.1832
-0.07861328,0.534668,-0.07714844,-6.145038,17.40458,-248.1832
0.2163086,0.7148438,-0.09326172,20.48855,1.061069,-248.1832
0.001220703,0.5722656,-0.1618652,13.85496,-5.633588,-248.1832
-0.1728516,0.6882324,-0.07617188,8.175572,11.29008,-248.1832
-0.03930664,0.7744141,-0.3540039,-1.152672,-0.08396947,-248.1832
-0.4541016,0.9121094,-0.286377,1.160305,25.76336,-203.4351
-0.6704102,0.9528809,-0.3764648,-18.64886,2.900763,-138.9924
-1.135254,1.228516,0.03564453,-31.32061,9.824428,-39.1145
-0.7702637,1.003906,0.02880859,-18.18321,2.839695,9.488549
-0.4074707,0.9387207,0.07226563,0.870229,0.3664122,43.64885
-0.2370605,0.861084,0.1066895,12.43511,5.221374,66.90076
0.08911133,0.7214355,-0.2600098,16.71756,-14.84733,89.57252
0.4404297,1.227051,0.04882813,26.62595,-13.1145,46.67939
0.1943359,0.9030762,-0.3674316,18.68702,-4.0,49.62595
-eRotateA-,-e-,-e-,-e-,-e-,-e-
-sRotateA-,-s-,-s-,-s-,-s-,-s-
0.1000977,0.9772949,-0.1494141,-0.778626,-0.6717557,0.7328244
0.1176758,0.9462891,-0.1918945,-1.175573,-0.129771,1.083969
0.770752,0.5915527,-0.5483398,2.045802,26.93893,-103.1908
1.999939,0.7446289,-0.6872559,3.633588,-29.91603,-232.0992
1.999939,0.7683105,-0.08544922,3.885496,1.618321,-248.1832
0.5732422,0.4020996,0.1030273,12.72519,-0.3053435,-248.1832
-0.1054688,0.3239746,-0.1228027,50.94656,66.24428,-248.1832
-0.1560059,0.8181152,0.1494141,66.35878,4.152672,-248.1832
-0.4152832,0.7753906,-0.1203613,55.76336,3.40458,-248.1832
-0.7351074,0.3642578,-0.3291016,4.778626,-19.61069,-248.1832
-1.984375,0.2358398,-0.07421875,8.274809,-0.5725191,-248.1832
-1.984375,0.4067383,-0.4572754,-51.26717,-32.67939,-148.1603
-1.803223,0.7287598,-0.140625,-1.068702,0.1221374,-66.23664
-1.212891,0.9213867,0.06762695,-29.64122,14.17557,-18.93893
-0.3613281,0.8806152,0.08959961,11.94656,10.36641,-31.9771
-0.2683105,0.8413086,0.008056641,1.709924,-18.25191,-41.87023
-0.4938965,0.8054199,-0.3010254,19.34351,-1.351145,-45.42748
-0.887207,0.7021484,-0.2880859,11.84733,4.022901,-29.35114
-0.8735352,0.713623,-0.4333496,-3.458015,-7.633588,-7.709924
-0.7888184,0.6831055,-0.3371582,-11.25954,-4.206107,3.450382
-0.7126465,0.7609863,-0.1887207,-11.8626,-5.0,9.587787
-0.5566406,0.7770996,-0.1184082,-10.38168,0.1068702,8.351145
-0.5124512,0.798584,-0.08862305,0.1755725,1.175573,4.053435
-1.222168,1.07666,-0.2670898,1.343511,2.290076,83.66412
-1.984375,0.09130859,-0.7988281,-37.82443,7.045802,248.1145
-1.984375,0.2519531,-0.4509277,-62.12214,-6.503817,250.1298
-0.9616699,0.6899414,0.2287598,-61.59542,-17.24427,250.1298
-0.262207,0.6120605,0.04760742,-41.91603,-25.61069,250.1298
-0.3371582,0.3620605,0.1254883,-59.77863,-30.74046,250.1298
0.1088867,0.4660645,-0.3398438,0.6183206,-57.49618,250.1298
0.05151367,0.6501465,-0.1015625,15.0458,-16.69466,250.1298
-0.0871582,0.6413574,-0.3554688,17.64886,-5.519084,250.1298
-0.2062988,0.4716797,-0.3764648,-6.412214,-10.34351,250.1298
-0.1933594,0.574707,-0.387207,-5.519084,9.366412,250.1298
-0.02734375,0.7084961,-0.1081543,-8.740458,2.022901,250.1298
0.1252441,0.4299316,-0.1704102,-9.419847,-3.236641,250.1298
0.2307129,0.6850586,-0.08789063,-4.549618,-6.114504,250.1298
0.4133301,0.5581055,0.008056641,2.748092,-8.648855,250.1298
0.2243652,0.4335938,-0.1696777,2.167939,-4.328244,250.1298
0.2973633,0.4338379,-0.1772461,3.89313,-2.916031,250.1298
0.9873047,0.6635742,-0.1748047,-1.931298,-5.061069,250.1298
0.4592285,0.9538574,0.1337891,-8.374045,-7.038168,38.55725
0.4204102,0.7961426,-0.05053711,15.37405,-8.900764,51.76336
0.3642578,0.6826172,-0.2507324,8.671756,3.80916,52.58779
1.597412,0.9658203,-0.296875,4.755725,7.732824,-35.71756
1.999939,0.1201172,-0.7297363,-10.76336,11.98473,-216.9924
1.999939,0.02685547,-0.1633301,-9.610687,13.9313,-248.1832
0.4584961,0.2224121,-0.1013184,-10.15267,-4.045802,-248.1832
0.2167969,0.53125,-0.1040039,5.038168,5.664122,-248.1832
0.05737305,0.7272949,-0.01342773,0.4122138,12.16794,-248.1832
0.1748047,0.5644531,-0.2163086,15.53435,1.770992,-248.1832
0.1281738,0.6147461,-0.1425781,17.94657,-9.267176,-248.1832
-0.1281738,0.6687012,-0.1923828,1.725191,-0.129771,-248.1832
0.01928711,0.7929688,-0.190918,-2.450382,15.96183,-248.1832
-0.1733398,0.8596191,-0.3347168,-14.90076,-13.29008,-248.1832
-0.9396973,1.028809,-0.2687988,-17.91603,-2.022901,-136.8015
-1.542236,1.209473,-0.02856445,-32.45038,14.90076,-31.15267
-0.854248,0.9624023,-0.01953125,-20.77099,-4.061069,25.37405
-0.3410645,0.8937988,0.1044922,-0.6641222,1.725191,66.17558
-0.1157227,1.083008,0.1081543,-1.725191,14.29008,83.58778
0.09423828,0.9055176,-0.2524414,10.12977,-26.63359,94.15267
0.4050293,1.065186,-0.168457,28.64122,-17.0458,61.06107
-eRotateA-,-e-,-e-,-e-,-e-,-e-
-sRotateA-,-s-,-s-,-s-,-s-,-s-
0.1044922,0.9755859,-0.1425781,-0.0610687,-0.6564885,0.2213741
0.09985352,0.9638672,-0.1391602,-0.7022901,-0.3358779,0.2900764
0.1711426,0.9858398,-0.2089844,-2.526718,-2.091603,0.0610687
1.948242,0.8913574,-0.2402344,4.977099,-38.53435,-107.6412
1.999939,0.7954102,-0.3400879,-6.236641,-16.49618,-248.1832
1.999939,0.6225586,-0.1625977,5.473282,-18.57252,-248.1832
0.01513672,0.498291,0.07104492,18.62595,17.42748,-248.1832
0.01342773,0.3937988,-0.01245117,50.06107,72.06107,-248.1832
0.1071777,0.3535156,1.466553,53.32824,-33.29771,-248.1832
-0.4174805,0.7182617,-0.2050781,50.78626,-2.48855,-248.1832
-0.5705566,0.4060059,-0.3708496,25.0,-27.76336,-248.1832
-1.226807,0.1491699,-1.481445,45.83969,-9.19084,-248.1832
-1.906494,0.4372559,-0.2756348,-23.67175,-11.83969,-163.5802
-1.955322,0.7800293,0.08447266,11.28244,11.32824,-88.39695
-1.135742,0.9978027,0.1455078,-39.32061,10.60305,-40.16031
-0.4956055,0.6865234,-0.01269531,2.427481,1.908397,-47.86259
-0.4091797,0.7780762,-0.1269531,19.85496,-10.39695,-52.25191
-0.6774902,0.7255859,-0.3251953,7.778626,8.694656,-40.54198
-0.8864746,0.7868652,-0.1694336,6.969466,-2.068702,-22.64122
-0.8383789,0.6157227,-0.4060059,-13.1374,1.061069,-6.496183
-0.7380371,0.7453613,-0.307373,-3.473282,-1.801527,5.625954
-0.6665039,0.8088379,-0.1208496,-10.48092,-1.694656,9.129771
-1.285645,1.251953,0.0002441406,-7.137404,0.1450382,89.50381
-1.984375,0.3024902,-0.4589844,-12.54962,15.80153,196.0153
-1.984375,0.333252,-0.2324219,-41.58015,-9.702291,250.1298
-1.380615,0.3479004,-0.2597656,-53.84733,-12.9084,250.1298
-0.123291,0.784668,0.2988281,-54.03053,-48.57252,250.1298
-0.2172852,0.2487793,-0.0168457,-42.22901,-45.45802,250.1298
-0.08520508,0.6523438,0.1345215,-25.52672,-46.93893,250.1298
0.05151367,0.6835938,-0.04125977,2.793893,-100.4046,250.1298
-0.1638184,0.5183105,-0.4274902,10.76336,-0.389313,250.1298
-0.2514648,0.5859375,-0.3449707,-9.755725,-6.221374,250.1298
-0.07958984,0.6523438,-0.2495117,-7.29771,7.328244,250.1298
0.1738281,0.5913086,-0.05859375,-7.862596,-4.396946,250.1298
0.1828613,0.5483398,0.06054688,1.099237,-3.694656,250.1298
0.3571777,0.5014648,-0.1328125,3.053435,-4.59542,250.1298
0.314209,0.5854492,-0.1066895,5.259542,-10.19847,250.1298
0.3317871,0.4750977,-0.1748047,5.557252,-5.740458,250.1298
0.4492188,0.4538574,-0.1381836,-0.5801527,7.687023,250.1298
1.090088,0.5166016,-0.4589844,5.885496,5.480916,250.1298
1.999939,0.2055664,-0.2907715,-27.87786,8.145039,153.3893
1.999939,0.4147949,0.0456543,-12.72519,1.687023,45.22901
0.9064941,0.7333984,-0.02563477,-7.236641,-12.24428,24.79389
0.4638672,1.026367,0.1081543,1.129771,-4.282443,31.70992
0.4443359,0.8139648,-0.2216797,4.198473,25.03817,-15.99237
1.999939,0.480957,-0.5869141,41.21374,17.05343,-138.5802
1.999939,0.1113281,-0.5026855,-1.801527,10.65649,-248.1832
0.1655273,0.612793,-0.1933594,4.022901,-1.908397,-248.1832
-0.123291,0.5,-0.1655273,10.12977,10.23664,-248.1832
-0.05371094,0.7016602,-0.3039551,5.885496,-2.259542,-248.1832
-0.2883301,1.083252,-0.2963867,-6.763359,2.442748,-248.1832
-1.112549,0.9001465,-0.4992676,-16.42748,18.29771,-165.3588
-0.6967773,0.4257813,-0.6801758,-24.66412,-13.30534,-77.26717
-1.12085,0.8881836,-0.06469727,-24.79389,1.412214,-13.44275
-0.621582,1.112061,0.1303711,-10.34351,-1.40458,29.58015
-0.307373,0.8937988,0.07836914,0.0,0.519084,57.33588
-0.1279297,1.096191,0.1362305,2.076336,12.07634,74.31298
0.09594727,0.9367676,-0.2080078,11.96947,-25.61832,88.17558
0.4802246,1.125488,-0.1503906,31.18321,-14.65649,51.8855
0.2172852,0.9619141,-0.4108887,18.33588,7.839694,33.1145
0.6535645,0.9274902,-0.5725098,-4.0,-0.3435115,-2.320611
0.7009277,0.9333496,-0.3327637,-16.93893,-0.6335878,-27.21374
-eRotateA-,-e-,-e-,-e-,-e-,-e-
-sRotateA-,-s-,-s-,-s-,-s-,-s-
0.1044922,0.9711914,-0.1394043,-0.389313,-0.6564885,0.3129771
0.1037598,0.9682617,-0.1240234,-0.6335878,-3.068702,1.648855
1.723145,0.6914063,-0.3244629,2.793893,-14.17557,-94.01527
1.999939,0.7026367,-0.5939941,-0.4198473,-27.09924,-243.2519
1.999939,0.6901855,-0.1140137,3.343511,-12.99237,-248.1832
0.3212891,0.4421387,0.09082031,15.76336,6.351145,-248.1832
-0.06738281,0.3669434,-0.04125977,48.65649,58.45038,-248.1832
0.004638672,0.2302246,1.216797,68.48092,-30.43511,-248.1832
-0.3562012,0.583252,-0.1728516,49.19084,-7.854962,-248.1832
-0.6286621,0.3295898,-0.2355957,25.49618,-16.64122,-248.1832
-1.067383,-0.171875,-1.700195,64.71756,7.709924,-248.1832
-1.984375,0.2060547,-0.7536621,-13.20611,-12.49618,-188.5802
-1.984375,0.8303223,0.1174316,7.068702,4.801527,-90.71756
-1.367676,0.9362793,0.1611328,-35.70229,10.65649,-28.46565
-0.6057129,0.6914063,-0.06640625,-6.175572,9.587787,-30.25191
-0.331543,0.9155273,0.0168457,22.56489,-8.083969,-41.96183
-0.4394531,0.8967285,-0.1081543,17.74046,-6.824428,-48.34351
-0.8381348,0.8269043,-0.1188965,12.56489,14.22137,-34.29008
-0.8847656,0.6950684,-0.5478516,-1.21374,-5.534351,-8.763359
-0.8308105,0.7060547,-0.2919922,-24.41221,-3.389313,4.610687
-0.6640625,0.7658691,-0.1594238,-13.79389,-3.610687,7.366412
-0.5317383,0.8088379,-0.1120605,-5.633588,1.80916,4.603054
-0.5241699,1.372314,-0.111084,-15.23664,-12.28244,35.80153
-1.984375,0.704834,-0.5495605,10.9771,2.51145,161.5878
-1.984375,0.6132813,-0.2880859,-62.83206,8.877863,250.1298
-1.942627,0.5302734,0.1125488,-62.89313,9.366412,250.1298
-0.4506836,0.1025391,-0.3652344,-38.35115,-16.24427,250.1298
-0.2666016,0.5290527,0.4108887,-49.05344,-45.77099,250.1298
-0.0222168,0.3928223,0.02001953,-39.22137,-25.77863,250.1298
0.04638672,0.7001953,0.2734375,9.099236,-81.52672,250.1298
-0.01245117,0.6120605,-0.2102051,19.22901,-5.59542,250.1298
-0.08984375,0.5720215,-0.4833984,-1.916031,-13.1374,250.1298
-0.2272949,0.5224609,-0.3786621,5.007634,1.236641,250.1298
-0.0546875,0.6730957,-0.4042969,-14.34351,-9.473283,250.1298
0.07421875,0.4440918,-0.2202148,-11.96183,-2.083969,250.1298
0.1787109,0.5756836,0.114502,-4.427481,-5.564886,250.1298
0.2526855,0.5158691,-0.112793,-1.519084,-1.206107,250.1298
0.3059082,0.4299316,-0.1225586,6.29771,-6.473282,250.1298
0.3266602,0.5270996,-0.1350098,9.061069,-10.72519,250.1298
0.453125,0.3730469,-0.1765137,0.9923664,7.51145,250.1298
1.229248,0.4135742,-0.5534668,1.824428,7.114504,250.1298
1.999939,0.4086914,-0.2109375,-28.01527,0.259542,137.7634
1.999939,0.3842773,0.06811523,-17.76336,0.4122138,37.45038
0.7929688,0.6650391,-0.1108398,-13.19084,20.50382,-25.19847
1.864746,1.021729,-0.09350586,8.267176,0.7251908,-113.8092
1.999939,0.15625,-0.3212891,10.91603,2.816794,-249.9924
1.999939,0.2382813,-0.3728027,3.832061,6.351145,-248.1832
0.720459,0.2119141,-0.2312012,-5.175572,-7.541985,-248.1832
0.2529297,0.4404297,-0.2939453,2.931298,10.0916,-248.1832
0.190918,0.6906738,-0.2666016,-1.183206,11.48855,-248.1832
0.1977539,0.6262207,-0.1279297,-0.8625955,4.59542,-248.1832
-0.112793,0.5837402,-0.05078125,5.08397,7.587786,-248.1832
-0.1247559,0.6630859,-0.1230469,2.312977,3.603053,-248.1832
-1.158203,1.109375,-0.05493164,-14.12977,-1.969466,7.816794
-0.5710449,1.178955,0.1801758,-1.389313,-4.633588,52.58015
-0.2407227,0.7919922,0.126709,0.5343512,3.633588,75.9313
0.1052246,1.093994,0.3723145,29.87786,-7.503817,102.1603
0.2663574,1.05835,0.1105957,15.25954,-21.67175,72.80916
0.2592773,0.9345703,-0.2753906,21.34351,-7.221374,65.16794
0.9689941,1.008057,-0.4040527,16.92366,-11.38931,11.48092
0.8068848,0.892334,-0.4882813,-8.145039,-3.427481,-23.43511
0.3840332,0.8796387,-0.2675781,-18.41221,-0.5496183,-37.98473
-eRotateA-,-e-,-e-,-e-,-e-,-e-
-sRotateA-,-s-,-s-,-s-,-s-,-s-
0.1079102,0.9768066,-0.1433105,-0.2061069,-0.5725191,0.3282443
0.1081543,0.9553223,-0.1801758,-0.9083969,-1.267176,2.114504
0.08569336,0.947998,-0.1079102,-1.900763,5.206107,-10.43511
1.442627,0.7138672,-0.6765137,0.519084,-29.45802,-244.5191
1.999939,0.7380371,-0.1262207,0.2519084,-15.54198,-248.1832
0.1652832,0.5195313,0.1381836,15.1374,12.38931,-248.1832
-0.09448242,0.2878418,-0.08300781,53.44275,58.9313,-248.1832
0.05639648,0.2944336,0.3837891,62.9542,-0.6030535,-248.1832
-0.333252,0.677002,-0.2961426,37.55725,-16.20611,-248.1832
-0.5058594,0.453125,-0.6481934,21.89313,-22.34351,-248.1832
-1.903076,0.2636719,-0.2563477,49.67939,-23.12977,-248.1832
-1.984375,0.2338867,-0.4438477,-28.76336,-27.96183,-151.8244
-1.924561,0.9550781,-0.001464844,-20.16794,-4.259542,-67.33588
-1.271484,0.6936035,0.09301758,-17.09924,22.45802,-22.64122
-0.5266113,0.8779297,-0.01660156,16.46565,19.46565,-17.23664
-0.3024902,0.965332,0.0612793,-5.854962,-14.59542,-32.60305
-0.4533691,0.942627,-0.1333008,19.67175,-1.076336,-37.56488
-0.7519531,0.7668457,-0.2258301,15.90076,11.03817,-23.48855
-0.7197266,0.7485352,-0.484375,-0.2442748,-9.091603,-7.564886
-0.7907715,0.7753906,-0.286377,-18.10687,-2.763359,4.969466
-0.6569824,0.7177734,-0.2282715,-10.16031,-3.48855,8.259542
-0.5559082,0.7856445,-0.1186523,-6.305344,1.030534,7.396946
-0.5578613,0.8061523,-0.08886719,-1.885496,-1.587786,8.427481
-1.389893,1.103027,-0.2160645,-3.29771,-13.8626,98.34351
-1.984375,0.2907715,-0.293457,-66.46565,11.72519,250.1298
-1.984375,0.5556641,0.007080078,-60.60305,-0.2748091,250.1298
-0.7768555,0.3227539,-0.2331543,-40.46565,4.984733,250.1298
-0.1660156,0.6088867,-0.03833008,-35.79389,-40.1832,250.1298
-0.2021484,0.7980957,-0.003662109,-42.79389,-19.0458,250.1298
0.1418457,0.8847656,0.04418945,-2.664122,-84.71756,250.1298
0.06005859,0.626709,-0.185791,14.57252,-9.290076,250.1298
-0.06005859,0.5092773,-0.5283203,7.954198,-7.603054,250.1298
-0.2092285,0.6665039,-0.425293,8.137404,0.2213741,250.1298
-0.189209,0.5598145,-0.4077148,-11.05344,-5.938931,250.1298
0.01293945,0.5412598,-0.05834961,-10.70992,1.137405,250.1298
0.1337891,0.5400391,0.02246094,-5.832061,2.755725,250.1298
0.2270508,0.4643555,-0.07910156,-2.282443,-6.366412,250.1298
0.3762207,0.6008301,-0.06005859,3.824427,-12.53435,250.1298
0.3144531,0.4396973,-0.185791,4.954198,-8.908397,250.1298
0.3735352,0.4567871,-0.1774902,2.770992,-1.755725,250.1298
1.001953,0.5888672,-0.175293,11.29771,-0.1908397,250.1298
1.999939,0.2893066,-0.2971191,-22.16031,9.488549,138.8168
1.999939,0.5029297,-0.002197266,-13.66412,-5.312977,40.56488
0.8183594,0.673584,-0.015625,-0.8091603,-14.14504,20.91603
1.193848,1.063232,0.1027832,21.05343,8.717557,-71.80916
1.999939,0.4731445,-0.578125,17.15267,4.10687,-195.9008
1.999939,0.5571289,-0.07275391,-1.450382,8.427481,-248.1832
0.9550781,0.2270508,-0.2539063,-27.22901,-2.29771,-248.1832
0.2570801,0.4038086,-0.04345703,3.045802,4.305344,-248.1832
0.109375,0.5661621,0.07006836,15.52672,2.70229,-248.1832
0.269043,0.5678711,-0.3044434,7.671756,2.122137,-248.1832
-0.02026367,0.59375,-0.5905762,-11.27481,0.2442748,-248.1832
-0.001708984,0.8178711,-0.04956055,-0.4503817,21.15267,-248.1832
-0.1149902,0.6975098,-0.2524414,-11.66412,-11.00763,-248.1832
-0.498291,0.8327637,-0.2832031,2.572519,30.45802,-224.6412
-0.795166,0.8803711,0.0144043,8.068703,-1.236641,-123.3664
-1.240234,1.011963,-0.04956055,-21.08397,2.870229,-21.84733
-0.9777832,0.9541016,0.1074219,-24.32825,-0.3435115,35.1832
0.1206055,0.8254395,-0.286377,21.62595,7.80916,49.19847
0.8198242,1.00708,-0.5185547,11.38931,-3.51145,2.351145
0.8894043,0.9724121,-0.3779297,-9.305344,-5.442748,-32.1832
0.2409668,0.8937988,-0.1362305,-15.60305,0.8854962,-40.96183
-eRotateA-,-e-,-e-,-e-,-e-,-e-
-sRotateA-,-s-,-s-,-s-,-s-,-s-
0.09643555,0.9846191,-0.1345215,-0.3969466,-0.7862596,0.5267176
0.1030273,0.9812012,-0.192627,-0.9160305,1.0,-0.7633588
0.1013184,0.871582,0.01049805,14.16031,51.14504,-102.1298
1.469482,0.987793,-0.3369141,8.900764,-21.73282,-188.5878
1.999939,0.9946289,0.09545898,-12.65649,54.47328,-248.1832
0.954834,0.4042969,0.2849121,20.81679,16.71756,-248.1832
-0.006591797,0.2548828,-0.1311035,44.34351,39.47328,-248.1832
0.06494141,0.2939453,-0.5495605,107.458,214.1221,-248.1832
-0.007324219,0.5461426,0.07202148,83.58015,-22.96947,-248.1832
-0.3508301,0.442627,-0.5761719,44.22901,-29.81679,-248.1832
-0.6269531,0.6398926,-0.4846191,-1.312977,-53.29008,-248.1832
-1.984375,0.2312012,-1.075195,7.755725,-13.01527,-248.1832
-1.984375,-0.04467773,-0.2749023,24.35114,16.65649,-112.6718
-1.815674,1.095703,0.1464844,-47.64885,11.82443,-30.23664
-0.7478027,0.9042969,0.2641602,-35.22137,25.89313,-21.29008
-0.2875977,0.887207,0.07543945,29.12214,-1.198473,-20.31298
-0.3254395,0.8178711,-0.09887695,10.37405,-15.74046,-30.62595
-0.6142578,0.6862793,-0.3242188,17.08397,17.25954,-30.37405
-0.7558594,0.7565918,-0.3776855,17.41985,2.854962,-16.0
-0.810791,0.7070313,-0.3823242,-7.59542,-6.312977,-0.5267176
-0.6608887,0.7097168,-0.1689453,-34.86259,-7.236641,5.931298
-0.5205078,0.8310547,-0.107666,-17.05343,-4.931298,2.48855
-0.5266113,0.8161621,-0.04858398,-4.740458,1.541985,0.5648855
-0.9553223,1.369141,0.02441406,-23.54962,-6.923664,39.12214
-1.888428,0.6340332,-0.5615234,6.320611,-3.770992,159.1985
-1.984375,0.598877,-0.3049316,-62.89313,8.885496,250.1298
-1.984375,0.5390625,0.08178711,-69.48855,3.900763,250.1298
-0.5712891,0.09179688,-0.4360352,-32.96947,1.748092,250.1298
-0.2412109,0.4428711,0.4245605,-50.30534,-47.38931,250.1298
-0.0612793,0.59375,0.01342773,-16.22137,-75.94656,250.1298
0.08032227,0.5217285,0.02148438,5.839694,-29.25191,250.1298
-0.1367188,0.4667969,-0.2004395,27.24427,-3.664122,250.1298
-0.1738281,0.7026367,-0.2526855,10.1145,2.938931,250.1298
-0.1662598,0.6960449,-0.5805664,-4.694656,-15.39695,250.1298
-0.1125488,0.4067383,-0.2263184,-13.80916,-0.870229,250.1298
0.1186523,0.6774902,-0.01660156,-9.625955,-5.625954,250.1298
0.2224121,0.5012207,-0.0246582,-8.610687,-6.206107,250.1298
0.255127,0.4919434,-0.002929688,-5.557252,-3.435115,250.1298
0.2426758,0.4436035,-0.140625,3.885496,-7.732824,250.1298
0.3083496,0.3898926,-0.171875,7.992366,-6.282443,250.1298
0.8317871,0.4306641,-0.4094238,-4.824428,-3.59542,250.1298
1.999939,0.394043,-0.5871582,-11.07634,9.679389,248.0229
1.999939,0.5917969,0.03076172,-7.709924,-1.343511,97.06107
1.645996,0.4753418,0.09619141,-14.15267,-7.610687,38.63359
0.6618652,0.623291,-0.1040039,-15.24428,16.31298,-22.54198
1.977783,0.838623,0.05249023,32.87023,-2.198473,-125.2519
1.999939,0.3574219,-0.5917969,-1.038168,2.282443,-248.1832
1.604004,0.482666,-0.2172852,-16.51145,-11.23664,-248.1832
0.2321777,0.4909668,-0.04931641,-1.763359,-0.9389313,-248.1832
0.05712891,0.5092773,-0.006347656,5.900764,6.29771,-248.1832
0.1225586,0.4714355,-0.230957,13.34351,10.83206,-248.1832
0.2207031,0.7490234,-0.2695313,-2.938931,-6.946565,-248.1832
-0.09350586,0.8481445,-0.109375,-3.045802,10.03817,-248.1832
0.03564453,0.6799316,-0.1801758,-3.847328,6.206107,-248.1832
-0.4255371,0.9257813,0.007080078,8.183207,15.71756,-248.1832
-1.116455,1.000732,-0.2961426,-14.70992,-5.099236,-162.6794
-1.730957,1.01416,0.03759766,-42.09924,20.93893,-56.09924
-1.070068,0.8962402,-0.1413574,-23.54198,0.7251908,18.00763
-0.6057129,0.9985352,0.1020508,-3.862595,-4.152672,58.10687
-0.265625,0.9013672,0.2368164,3.206107,5.167939,83.86259
0.126709,0.8300781,-0.2229004,19.70992,-9.763359,105.229
0.4121094,1.179932,0.09692383,21.60305,-23.55725,66.0687
-eRotateA-,-e-,-e-,-e-,-e-,-e-
-sRotateA-,-s-,-s-,-s-,-s-,-s-
0.08911133,0.9833984,-0.1252441,-0.03053435,-0.4961832,0.3816794
0.9626465,0.5161133,0.2966309,21.9084,14.54962,-248.1832
-0.07836914,0.2866211,-0.09204102,43.46565,41.45802,-248.1832
0.01708984,0.348877,-0.5002441,100.1679,210.9466,-248.1832
-0.0637207,0.5324707,-0.03930664,78.9771,-29.22901,-248.1832
-0.3964844,0.5036621,-0.3535156,42.41985,-15.77863,-248.1832
-0.994873,0.7910156,-0.4128418,0.2061069,-50.83969,-248.1832
-1.984375,0.2075195,-0.7602539,-8.244275,-25.34351,-248.1832
-1.984375,0.2541504,-0.4594727,-10.19847,0.8091603,-129.6336
-1.894043,0.9987793,0.1577148,-6.076336,18.77863,-60.87786
-0.9821777,0.8659668,0.04077148,-15.54198,19.58015,-31.08397
-0.4069824,0.864502,0.02978516,33.0916,3.015267,-36.16031
-0.442627,0.8808594,0.02758789,7.832061,-9.923664,-38.9084
-0.6469727,0.7929688,-0.2624512,11.06107,11.01527,-29.93893
-0.7319336,0.7514648,-0.345459,-0.8091603,-6.10687,-19.05343
-0.9541016,0.6591797,-0.3935547,7.992366,3.564885,-4.38168
-0.7792969,0.7167969,-0.328125,-1.045802,-2.969466,6.557252
-0.6240234,0.8200684,-0.1481934,-2.374046,-1.419847,4.045802
-0.5424805,0.7751465,-0.1210938,-2.10687,1.687023,1.648855
-0.5087891,0.7836914,-0.1032715,4.290076,1.748092,-4.801527
-0.5568848,0.776123,-0.2021484,5.007634,-0.5267176,-9.282443
-0.6318359,0.7792969,-0.2695313,-0.3664122,-0.1755725,-5.664122
-0.6655273,0.7316895,-0.329834,-12.90076,-10.0458,6.0
-1.876709,1.132813,0.3024902,-11.76336,-12.61069,99.32061
-1.984375,0.005126953,-0.5690918,-41.01527,15.85496,248.0534
-1.984375,0.2683105,-0.7348633,-55.94656,-22.67175,250.1298
-0.8862305,0.5559082,-0.09179688,-47.53435,-0.8091603,250.1298
-0.1101074,0.8779297,0.1713867,-56.48855,-26.61069,250.1298
-0.08032227,0.4150391,0.3085938,-42.60305,-52.57252,250.1298
0.008300781,0.503418,-0.2365723,6.137404,-5.564886,250.1298
0.04443359,0.4941406,0.01123047,1.198473,-125.9695,250.1298
-0.4086914,0.4145508,-0.5952148,11.83206,1.40458,250.1298
-0.5715332,0.6171875,-0.3059082,-0.4198473,2.923664,250.1298
-0.01147461,0.6928711,-0.3017578,-6.175572,-3.938931,250.1298
-0.02001953,0.4934082,-0.1328125,-8.442748,-3.007634,250.1298
0.151123,0.6928711,0.06030273,-0.648855,-0.9770992,250.1298
0.348877,0.597168,0.03222656,0.3664122,-8.961832,250.1298
0.3789063,0.5075684,-0.1447754,4.496183,-8.290076,250.1298
0.2993164,0.4411621,-0.1118164,2.946565,-8.664123,250.1298
0.3637695,0.4321289,-0.208252,2.458015,-2.335878,250.1298
0.9658203,0.6555176,-0.09887695,10.19084,-6.061069,250.1298
1.999939,0.3574219,-0.6398926,-13.06107,6.91603,192.1756
1.999939,0.5324707,-0.05444336,-14.20611,-7.725191,68.19847
1.261719,0.7626953,0.1550293,-10.46565,-28.42748,24.32061
1.241699,0.8344727,-0.02099609,11.12977,5.328244,-83.09924
1.999939,0.4592285,-0.2678223,25.25954,3.625954,-204.6488
1.999939,0.394043,-0.1809082,-0.519084,2.778626,-248.1832
0.9101563,0.2836914,-0.3793945,-19.91603,0.8167939,-248.1832
0.3789063,0.3681641,-0.08691406,1.801527,3.618321,-248.1832
0.1967773,0.5979004,-0.0703125,6.160306,2.351145,-248.1832
0.3820801,0.5266113,-0.2397461,6.641222,1.954198,-248.1832
-0.01220703,0.6140137,-0.5905762,-6.122138,2.580153,-248.1832
-0.001220703,0.8190918,-0.09960938,1.29771,18.30534,-248.1832
-0.1640625,1.175537,-0.1264648,-14.8855,-4.435114,-248.1832
-1.017578,0.9499512,-0.4230957,-11.12214,14.17557,-188.2519
-1.287109,0.3432617,-0.7502441,-41.87786,5.206107,-98.40458
-1.469971,1.006348,-0.1704102,-10.18321,-3.183206,-1.137405
-0.7556152,1.146729,0.1828613,-6.603054,-13.38168,63.03817
-0.345459,0.8168945,0.02148438,-6.725191,2.122137,84.64122
0.002441406,1.469727,0.6811523,32.57252,0.9160305,110.0534
0.2019043,0.9846191,0.130127,12.74046,-22.54962,80.69466
0.8276367,0.8303223,-0.3520508,15.64122,1.938931,21.9084
-eRotateA-,-e-,-e-,-e-,-e-,-e-
-sRotateA-,-s-,-s-,-s-,-s-,-s-
0.1137695,0.96875,-0.1452637,-0.832061,-0.2748091,-0.1679389
0.1088867,0.9711914,-0.1430664,-0.4580153,-0.2900764,-1.435114
0.1071777,1.005615,-0.08935547,5.061069,29.96947,-55.75573
1.051514,1.182617,-0.4499512,3.770992,-19.85496,-162.2748
1.999939,0.982666,-0.2583008,-13.91603,29.91603,-248.1832
1.273438,0.6582031,0.2099609,15.47328,20.12214,-248.1832
-0.3759766,0.3972168,-0.8303223,47.70992,-23.92366,-248.1832
-0.869873,0.6303711,-0.609375,1.053435,-47.38931,-248.1832
-1.984375,0.4331055,-0.3164063,6.961832,-24.24427,-248.1832
-1.984375,0.08374023,-0.3847656,2.229008,12.03053,-134.6107
-1.984375,1.255615,0.2988281,-16.66412,26.9771,-40.94656
-0.8393555,0.7160645,0.03613281,-18.64122,16.71756,-24.98473
-0.3789063,0.8383789,-0.06713867,32.67176,-2.572519,-29.96947
-0.4699707,0.8913574,-0.04272461,6.351145,-6.412214,-30.58779
-0.6184082,0.7270508,-0.1989746,6.419847,10.52672,-25.76336
-0.8015137,0.8461914,-0.2868652,8.328244,-4.08397,-16.31298
-0.7490234,0.6669922,-0.4616699,0.1450382,-1.847328,-1.366412
-0.7426758,0.6645508,-0.284668,-19.19084,-4.732824,9.328244
-0.6352539,0.8193359,-0.1540527,-11.58015,0.07633588,11.90076
-0.5039063,0.8012695,-0.1159668,-4.40458,0.9312977,6.648855
-0.515625,0.7932129,-0.07763672,3.10687,1.282443,2.641221
-0.496582,0.7912598,-0.1994629,4.625954,-0.4198473,-3.290076
-0.5678711,0.7653809,-0.2519531,-1.671756,-1.870229,-4.80916
-0.6472168,1.007324,-0.4091797,-20.03053,-14.48855,21.16031
-1.991699,1.037842,-0.3327637,1.580153,-7.725191,146.9313
-1.984375,0.4050293,-0.1552734,-62.35115,11.32824,250.1298
-1.984375,0.6760254,0.2617188,-69.229,2.152672,250.1298
-0.6806641,0.2922363,-0.2373047,-35.76336,7.259542,250.1298
-0.1645508,0.6633301,0.1860352,-33.58015,-37.79389,250.1298
-0.1904297,0.8183594,-0.09716797,-42.56488,-30.91603,250.1298
0.01538086,0.8825684,0.2192383,8.694656,-26.20611,250.1298
0.01293945,0.576416,-0.2897949,1.618321,-40.61832,250.1298
-0.1220703,0.3747559,-0.3662109,3.587786,-11.53435,250.1298
-0.1708984,0.6225586,-0.317627,11.09924,4.664122,250.1298
-0.05297852,0.5939941,-0.2333984,-13.32061,-6.969466,250.1298
0.03759766,0.3811035,-0.3718262,-12.89313,-1.557252,250.1298
0.1398926,0.4780273,-0.09692383,-8.412213,-1.580153,250.1298
0.2736816,0.6262207,-0.1191406,-1.267176,-3.442748,250.1298
0.3640137,0.5151367,-0.1437988,4.374046,-10.17557,250.1298
0.3149414,0.4238281,-0.06542969,5.572519,-10.27481,250.1298
0.5117188,0.3684082,-0.2385254,-0.9694656,3.015267,250.1298
1.999939,0.2380371,-0.635498,-5.648855,9.137404,250.1298
1.999939,0.5700684,-0.1235352,-17.30534,-3.824427,-32.49618
1.999939,0.4157715,0.1889648,8.106871,-7.21374,-196.1145
1.999939,0.4255371,0.1508789,23.68702,-5.38168,-248.1832
0.8564453,0.4240723,-0.078125,15.54198,-0.7328244,-248.1832
0.7275391,0.3947754,-0.2753906,14.74809,1.801527,-248.1832
0.6542969,0.4299316,-0.4990234,-15.45038,-4.076336,-248.1832
0.5563965,0.5715332,-0.4360352,-24.74046,2.427481,-248.1832
0.1269531,0.5715332,-0.1276855,-27.94657,8.290076,-248.1832
0.009277344,0.7316895,0.04174805,-18.07634,12.67176,-248.1832
-0.1115723,0.8178711,0.1350098,-7.549618,2.969466,-248.1832
-0.5949707,0.8762207,-0.02880859,-2.656489,50.90076,-248.1832
-1.133057,0.001220703,-0.7436523,-4.580153,-21.70992,-100.916
-1.770264,1.039063,-0.03564453,-1.114504,-14.28244,-12.29008
-1.072998,0.9375,-0.1313477,-15.32061,-3.541985,68.68702
-0.1452637,0.9418945,-0.004638672,4.694656,-4.89313,87.37405
0.1062012,0.8657227,-0.1103516,14.25191,-9.045801,112.3359
0.4431152,1.17041,-0.009033203,17.9542,-22.67939,89.19847
0.3535156,0.7824707,-0.3686523,15.39695,19.29008,32.26717
1.044434,0.9772949,-0.4350586,10.74046,2.80916,-10.34351
0.8691406,1.020264,-0.1413574,-5.984733,-4.732824,-40.19847
-eRotateA-,-e-,-e-,-e-,-e-,-e-
-sRotateA-,-s-,-s-,-s-,-s-,-s-
0.1081543,0.973877,-0.1594238,-1.007634,-0.389313,0.1984733
0.1062012,0.9748535,-0.1818848,-1.122137,-0.4885496,1.328244
0.1035156,0.9287109,-0.1645508,-0.9083969,-0.4885496,-0.259542
0.6386719,0.6447754,-0.5239258,2.870229,40.27481,-115.4275
1.999939,0.786377,-0.684082,6.816794,-41.0,-220.8092
1.999939,0.855957,-0.009033203,-11.16794,-2.419847,-248.1832
0.3759766,0.5532227,0.1120605,20.0229,17.61069,-248.1832
-0.046875,0.2558594,-0.09106445,53.0458,56.0916,-248.1832
0.001708984,0.3283691,-0.1816406,128.5878,-27.70229,-248.1832
-0.2214355,0.4916992,-0.3034668,65.39695,-18.71756,-248.1832
-0.357666,0.6196289,-0.6103516,36.0229,-31.32825,-248.1832
-0.9599609,0.1574707,-0.8037109,-54.06107,-42.03053,-248.1832
-0.5395508,0.8945313,-0.00390625,5.839694,7.458015,-27.87023
-0.3857422,0.8762207,0.08642578,12.03053,-12.45038,-34.1145
-0.4633789,0.8713379,-0.09790039,16.60305,-2.877863,-36.89313
-0.8012695,0.7180176,-0.3828125,16.64886,11.33588,-31.0
-0.8867188,0.7202148,-0.3498535,4.068702,-7.38168,-9.877863
-0.8959961,0.7189941,-0.354248,0.03053435,-0.610687,6.229008
-0.6291504,0.7126465,-0.2607422,-17.82443,-6.061069,8.412213
-0.5109863,0.7573242,-0.1499023,-1.442748,0.7328244,1.969466
-0.5463867,0.8115234,-0.02368164,0.6717557,3.374046,2.961832
-0.4799805,0.8244629,-0.1162109,3.022901,-0.4045802,-3.854962
-0.6428223,1.062012,-0.359375,-15.69466,-15.74809,18.46565
-1.916504,1.040771,-0.3137207,-6.480916,-16.33588,141.3817
-1.984375,0.2602539,-0.3261719,-64.78626,13.0458,250.1298
-1.984375,0.5627441,-0.2900391,-70.09924,0.5572519,250.1298
-0.7321777,0.8730469,0.2329102,-63.83969,-23.9084,250.1298
-0.03930664,0.5400391,0.364502,-41.76336,-71.47328,250.1298
0.06152344,0.8041992,0.1953125,2.763359,-24.32825,250.1298
-0.07958984,0.5883789,-0.08496094,9.916031,-36.28244,250.1298
-0.07421875,0.4213867,-0.5693359,12.99237,-14.34351,250.1298
-0.1152344,0.6835938,-0.3254395,8.557252,2.709924,250.1298
-0.2580566,0.4006348,-0.3532715,-9.511451,-2.137405,250.1298
-0.006591797,0.5629883,-0.1948242,-12.50382,1.755725,250.1298
0.1435547,0.5627441,-0.006347656,-9.022901,0.6259542,250.1298
0.2121582,0.5036621,-0.1838379,-2.870229,-2.694656,250.1298
0.4174805,0.5144043,0.00390625,3.442748,-12.67939,250.1298
0.2983398,0.4953613,-0.08984375,6.61832,-10.06107,250.1298
0.3786621,0.3950195,-0.2631836,2.709924,-4.351145,250.1298
0.9626465,0.6425781,-0.3237305,10.12214,13.58015,250.1298
1.999939,0.1176758,-0.5715332,-18.62595,29.53435,162.9389
1.999939,0.449707,0.05834961,-18.0458,-7.687023,59.07634
1.135254,0.6582031,0.2402344,-4.671756,-27.41985,30.01527
0.3532715,0.7302246,-0.03466797,4.51145,-11.03817,31.30534
0.2756348,0.7114258,-0.2145996,14.85496,15.77863,29.62595
1.999939,1.085938,-0.3310547,41.0458,-1.21374,-82.45038
1.999939,0.390625,-0.1474609,-27.23664,13.00763,-248.1832
1.755859,0.2207031,0.02368164,-29.92366,-12.30534,-248.1832
0.4155273,0.480957,0.277832,2.763359,-2.89313,-248.1832
-0.0324707,0.3093262,-0.01855469,13.44275,2.793893,-248.1832
-0.007568359,0.6311035,0.01586914,32.96947,8.977099,-248.1832
0.402832,0.5493164,-0.578125,20.21374,-6.671756,-248.1832
0.03759766,0.6279297,-0.529541,-23.0916,4.648855,-248.1832
-0.03710938,0.8146973,-0.078125,-13.61832,35.23664,-248.1832
-0.08422852,0.8317871,-0.2734375,-31.96183,-17.0916,-248.1832
-1.010498,0.8364258,-0.4013672,-16.47328,15.35114,-188.5802
-1.383301,0.5063477,-0.197998,-36.06107,13.48092,-93.74809
-1.389648,1.056396,0.01953125,-8.259542,-7.015267,-2.80916
-0.8120117,1.090088,0.1437988,1.290076,-10.38168,62.70992
-0.3071289,0.8532715,0.03613281,5.19084,-0.351145,86.27481
-0.003662109,1.59082,0.5717773,25.08397,1.374046,114.1908
0.3347168,0.8684082,0.02783203,13.39695,-23.82443,83.05344
-eRotateA-,-e-,-e-,-e-,-e-,-e-
-sRotateA-,-s-,-s-,-s-,-s-,-s-
0.1101074,0.9746094,-0.1567383,-1.29771,-0.3969466,-0.2061069
0.1174316,0.9599609,-0.1691895,-2.503817,-0.9694656,0.8015267
0.1020508,0.9431152,-0.1462402,-0.5801527,-1.282443,0.5267176
1.051025,0.6228027,-0.5588379,1.618321,19.22137,-103.0153
1.999939,0.737793,-0.715332,5.938931,-28.17557,-229.7328
1.999939,0.9091797,0.01245117,-8.564885,-9.358779,-248.1832
0.3649902,0.473877,0.08227539,23.29771,14.26718,-248.1832
-0.04199219,0.298584,-0.04663086,68.12214,44.30534,-248.1832
-0.1186523,0.5109863,1.456543,50.38168,-26.08397,-248.1832
-0.3498535,0.4868164,-0.4970703,38.73283,-34.23664,-248.1832
-0.7363281,0.6166992,-0.5771484,13.65649,-53.62595,-248.1832
-1.984375,0.1479492,-0.8867188,0.832061,-12.18321,-248.1832
-1.984375,0.04272461,-0.6135254,30.01527,10.47328,-140.3206
-1.984375,1.424072,0.4951172,-31.54962,22.42748,-37.93893
-0.8720703,0.6455078,0.08227539,-41.44275,20.93893,-23.52672
-0.4367676,0.8679199,-0.05175781,38.0229,1.083969,-21.32825
-0.3696289,0.864502,-0.01977539,4.305344,-10.19084,-27.29771
-0.815918,0.7121582,-0.3415527,-5.152672,-6.51145,11.70992
-0.6208496,0.7978516,-0.1811523,-22.79389,-7.564886,11.35878
-0.5166016,0.8195801,-0.06518555,-12.0687,-1.877863,6.366412
-0.5004883,0.7988281,-0.07446289,1.992366,2.328244,2.48855
-0.4934082,0.7885742,-0.1940918,6.320611,0.6183206,-3.053435
-0.5603027,0.7553711,-0.2736816,2.137405,-0.5954198,-4.343512
-0.6208496,0.793457,-0.4272461,-17.48092,-9.358779,12.92366
-1.921143,1.196045,-0.1540527,-13.01527,-12.84733,127.1374
-1.984375,0.3525391,-0.2333984,-60.77863,15.79389,250.1298
-1.984375,0.5593262,-0.2058105,-64.62595,0.480916,250.1298
-0.9680176,0.3686523,-0.06225586,-48.52672,6.08397,250.1298
-0.1960449,0.5825195,-0.09838867,-31.79389,-29.84733,250.1298
-0.2719727,0.8659668,0.1062012,-43.53435,-94.05344,250.1298
0.07568359,0.5981445,-0.126709,18.67939,-5.473282,250.1298
0.01391602,0.689209,0.03979492,10.64886,-23.73282,250.1298
-0.06616211,0.557373,-0.4633789,10.56489,-7.343512,250.1298
-0.2368164,0.6269531,-0.3525391,10.37405,-1.061069,250.1298
0.0246582,0.6733398,-0.4133301,-11.32061,-0.7633588,250.1298
0.1381836,0.6252441,-0.1098633,-15.00763,-4.496183,250.1298
0.1782227,0.4975586,0.05102539,-8.725191,1.007634,250.1298
0.260498,0.4572754,-0.07910156,-2.824427,0.8244275,250.1298
0.3393555,0.5895996,-0.02026367,6.770992,-12.08397,250.1298
0.328125,0.472168,-0.08422852,12.25191,-8.664123,250.1298
0.4633789,0.3703613,-0.1269531,5.70229,3.717557,250.1298
1.411621,0.572998,-0.5085449,8.755725,5.564886,250.1298
1.999939,0.3125,-0.1923828,-18.91603,4.366412,140.3969
1.999939,0.776123,0.2226563,-17.51145,-18.74046,-70.38168
1.999939,0.3896484,0.3015137,5.267176,1.877863,-236.458
1.637207,0.4089355,-0.1069336,17.37405,0.3969466,-248.1832
0.8269043,0.6083984,-0.166748,11.09924,-6.59542,-248.1832
0.5683594,0.4526367,-0.3647461,15.62595,-2.091603,-248.1832
0.5439453,0.496582,-0.3161621,-9.282443,8.503817,-248.1832
0.7416992,0.6174316,-0.432373,-21.25954,-8.549619,-248.1832
0.01464844,0.6362305,-0.09521484,-21.64122,6.648855,-248.1832
0.008300781,0.6821289,0.09082031,-4.10687,9.702291,-248.1832
-0.3579102,1.247314,0.2578125,12.1145,23.13741,-248.1832
-0.9470215,0.9462891,-0.2143555,16.32061,-3.122137,-196.6412
-1.671143,1.308838,-0.4602051,-9.419847,10.69466,-53.75573
-1.384277,0.8217773,-0.4016113,-26.26718,2.465649,28.94657
-0.6018066,1.05127,0.0546875,-5.183206,-18.69466,70.32825
-0.2834473,0.8000488,0.08984375,-2.900763,-0.02290076,93.9542
0.07568359,0.5029297,-0.2473145,13.59542,-0.519084,109.3206
0.3662109,1.275635,0.1013184,22.78626,-19.29008,97.79389
0.8754883,0.7180176,-0.2973633,9.862596,1.664122,26.47328
0.9992676,0.951416,-0.4736328,16.51145,5.030534,-16.9542
-eRotateA-,-e-,-e-,-e-,-e-,-e-
-sRotateA-,-s-,-s-,-s-,-s-,-s-
0.1149902,0.9785156,-0.1391602,-0.4427481,-0.870229,0.4732824
0.1032715,0.947998,-0.1958008,-1.557252,1.473282,-2.900763
0.09790039,0.9689941,-0.1003418,6.030534,33.19847,-66.70992
1.16626,1.241699,-0.2817383,3.480916,-24.12977,-181.4122
1.999939,0.9597168,0.03076172,-16.89313,51.83206,-248.1832
1.228516,0.4831543,0.135498,24.44275,15.07634,-248.1832
-0.01806641,0.234375,-0.05541992,49.19084,48.77099,-248.1832
-0.01025391,0.2021484,-0.3325195,138.9847,12.21374,-248.1832
-0.1286621,0.520752,-0.2993164,65.25191,-13.70992,-248.1832
-0.4255371,0.7832031,-0.3032227,25.73282,-35.9771,-248.1832
-0.8059082,0.01220703,-0.8913574,-17.37405,-16.46565,-248.1832
-1.984375,1.282227,0.1828613,7.580153,9.290076,-202.7634
-1.984375,-0.04345703,-0.5634766,4.549618,4.633588,-92.90839
-1.669434,1.068848,0.08154297,-48.31298,5.259542,-28.99237
-0.7700195,0.9274902,0.2687988,-28.83969,33.26717,-19.28244
-0.331543,0.8496094,0.1083984,17.49618,6.541985,-16.66412
-0.2519531,0.829834,-0.04956055,11.32061,-15.25954,-31.19084
-0.546875,0.8168945,-0.1794434,8.229008,11.38168,-28.49618
-0.8430176,0.7561035,-0.286377,9.511451,2.137405,-17.48092
-0.8183594,0.7219238,-0.4257813,-2.938931,-2.366412,0.1450382
-0.7312012,0.7060547,-0.1809082,-35.93893,-8.740458,10.57252
-0.6315918,0.7851563,-0.1455078,-20.12977,-4.007634,9.854961
-0.5327148,0.7897949,-0.08862305,-4.541985,2.587786,8.580153
-0.4633789,0.4516602,-0.2495117,-43.63359,-33.08397,250.1298
-0.1657715,0.4929199,0.078125,-47.48092,-64.26717,250.1298
-0.1364746,0.4455566,-0.05126953,-13.12214,-10.57252,250.1298
0.0690918,0.5646973,0.09985352,6.816794,-49.01527,250.1298
0.03027344,0.4675293,-0.1120605,19.22901,-7.19084,250.1298
-0.1030273,0.6589355,-0.234375,14.03817,-0.7022901,250.1298
-0.1455078,0.7485352,-0.3991699,0.6259542,-16.22901,250.1298
-0.08007813,0.380127,-0.3630371,-14.80153,-0.8244275,250.1298
0.1340332,0.6237793,-0.02416992,-11.41985,-6.870229,250.1298
0.2175293,0.5739746,-0.09448242,-10.84733,-6.045802,250.1298
0.2319336,0.4645996,-0.03808594,-6.480916,-2.374046,250.1298
0.230957,0.4433594,-0.05322266,2.236641,-5.503817,250.1298
0.3193359,0.4118652,-0.2026367,7.89313,-6.877862,250.1298
0.6877441,0.5029297,-0.3771973,-2.442748,0.9312977,250.1298
1.999939,0.3547363,-0.5222168,-6.068702,11.32061,249.2672
1.999939,0.552002,-0.07885742,-4.816794,-1.152672,98.07633
1.751709,0.5454102,0.0715332,-22.85496,-9.648855,36.68702
0.5695801,0.7387695,0.1074219,-3.549618,-10.77863,30.26718
0.3193359,0.8291016,-0.09887695,12.87023,-2.374046,53.03053
0.6530762,0.9914551,-0.1591797,15.50382,-2.251908,47.35878
0.8149414,0.5915527,-0.387207,-7.091603,9.80916,24.37405
1.999939,0.8364258,-0.09741211,14.71756,1.167939,-100.8779
1.999939,0.3701172,-0.1726074,-25.27481,2.068702,-248.1832
1.999939,0.3398438,0.03930664,-12.15267,-7.312977,-248.1832
0.4650879,0.3325195,-0.1289063,-10.9542,-2.870229,-248.1832
0.1242676,0.5065918,-0.1618652,20.21374,0.3358779,-248.1832
0.1743164,0.5800781,-0.1166992,8.244275,10.41221,-248.1832
0.3178711,0.7094727,-0.5026855,-5.503817,5.312977,-248.1832
0.1843262,0.6123047,-0.2077637,-9.893129,5.40458,-248.1832
-0.02026367,0.6726074,0.02587891,-9.656488,6.664122,-248.1832
-0.1459961,0.6977539,-0.02026367,2.633588,1.580153,-248.1832
-0.4648438,0.8950195,-0.1066895,15.99237,35.99237,-237.3969
-0.8615723,1.018066,-0.4213867,-5.244275,2.290076,-162.2977
-1.579102,1.351318,-0.08251953,-35.51908,17.96947,-37.96183
-0.9265137,0.9372559,0.08666992,-22.71756,-4.351145,45.17557
-0.3352051,0.8752441,0.04077148,-8.145039,0.351145,75.93893
-0.08520508,1.219727,-0.04296875,-6.335878,10.36641,94.85497
0.2231445,0.8583984,-0.2067871,4.61832,-21.78626,86.50381
0.3410645,1.037842,-0.1508789,23.64122,-18.20611,74.87023
-eRotateA-,-e-,-e-,-e-,-e-,-e-
-sRotateA-,-s-,-s-,-s-,-s-,-s-
0.1062012,0.9851074,-0.1345215,-1.160305,-0.3740458,-0.8931297
0.09667969,0.9538574,-0.1643066,-0.6946565,-0.648855,0.8549618
0.06079102,0.9692383,-0.09741211,1.374046,12.83206,-23.25954
0.9802246,1.094482,-0.3708496,3.038168,-31.46565,-144.3817
1.999939,0.9399414,-0.3266602,-14.96947,11.96947,-248.1832
1.607178,0.692627,0.2702637,7.396946,18.61069,-248.1832
-0.06689453,0.1911621,0.09985352,28.33588,33.51908,-248.1832
-0.07006836,0.4702148,-0.1499023,47.03053,168.8626,-248.1832
-0.06494141,0.7397461,0.09301758,86.24428,-2.755725,-248.1832
-0.2980957,0.579834,-0.4799805,41.36641,-22.71756,-248.1832
-0.4892578,0.5708008,-0.708252,18.0687,-37.55725,-248.1832
-1.984375,1.134033,0.5683594,-19.45802,-13.34351,-247.2366
-1.984375,0.1352539,-0.4880371,-14.69466,-2.59542,-116.0916
-1.83667,1.098145,0.01098633,-18.45802,3.824427,-50.70229
-0.9555664,0.7214355,-0.004638672,-20.16794,23.40458,-26.22901
-0.4707031,0.8737793,0.03662109,24.70229,19.39695,-24.77099
-0.2722168,0.9042969,0.0002441406,6.320611,-12.92366,-36.19084
-0.5349121,0.9035645,-0.2905273,14.80153,-0.6412213,-31.28244
-0.7773438,0.7382813,-0.2905273,0.8015267,3.0,-20.75573
-0.8554688,0.6357422,-0.4599609,8.320611,0.02290076,-6.328244
-0.8244629,0.7878418,-0.2858887,-8.648855,-3.717557,7.969466
-0.6899414,0.7963867,-0.1711426,-13.75572,-3.007634,10.32061
-0.5673828,0.782959,-0.1196289,-6.687023,0.1450382,8.908397
-0.5458984,1.045654,-0.234375,-26.09924,-14.36641,31.30534
-1.942627,1.124512,-0.328125,7.114504,2.862595,140.8397
-1.984375,0.3596191,-0.328125,-63.49618,13.26718,250.1298
-1.984375,0.6254883,0.1025391,-60.45038,-1.389313,250.1298
-0.7045898,0.3525391,-0.2692871,-36.73283,0.9847328,250.1298
-0.04394531,0.802002,-0.2023926,19.80153,-4.78626,250.1298
-0.08544922,0.5783691,-0.470459,4.541985,-9.587787,250.1298
-0.4443359,0.3654785,-0.576416,-4.900764,-8.045801,250.1298
0.01611328,0.6564941,-0.2731934,-10.78626,-1.19084,250.1298
0.1245117,0.5429688,-0.1140137,-13.0687,-2.778626,250.1298
0.1696777,0.5563965,0.1105957,-7.137404,-4.519084,250.1298
0.2832031,0.4206543,-0.1103516,-1.381679,-2.946565,250.1298
0.3937988,0.3999023,-0.08447266,6.167939,-9.442748,250.1298
0.3156738,0.503418,-0.1000977,8.061069,-12.48092,250.1298
0.5153809,0.3522949,-0.2363281,-3.015267,6.320611,250.1298
1.999939,0.2150879,-0.6281738,-8.244275,12.93893,250.1298
1.999939,0.5385742,-0.109375,-12.0916,-1.671756,119.9466
1.999939,0.3586426,-0.07324219,-21.56489,-2.847328,36.93893
0.7775879,0.6469727,-0.01342773,-6.419847,-10.42748,25.10687
0.3845215,0.8596191,0.06762695,8.465649,-6.816794,39.0
0.5371094,0.8173828,-0.4379883,-3.641221,38.42748,-8.702291
1.999939,0.5571289,-0.4584961,37.42748,19.84733,-129.2443
1.999939,0.4284668,0.006591797,-9.572519,8.374045,-248.1832
1.251709,0.2866211,0.244873,-3.847328,-11.87786,-248.1832
0.3237305,0.5375977,0.3679199,19.39695,-0.6030535,-248.1832
-0.09228516,0.2631836,-0.2392578,8.099236,8.21374,-248.1832
0.230957,0.5998535,-0.2216797,21.74046,9.496183,-248.1832
0.2941895,0.7749023,-0.5688477,-15.29771,-5.709924,-248.1832
