time,ax,ay,az,gx,gy,gz,temp
8372,0.3435059,0.9348145,-0.204834,-1.343511,-1.51145,-1.068702,25.49412
7866,0.3220215,0.8740234,-0.1435547,2.648855,1.793893,0.7175572,25.49412
7810,0.2946777,0.9294434,-0.2114258,-5.496183,-0.6717557,3.099237,25.49412
7792,0.2937012,0.9504395,-0.1418457,1.221374,1.061069,5.045802,25.54118
7833,0.3874512,0.9274902,-0.157959,-2.206107,0.1145038,2.725191,25.54118
7840,0.4001465,0.9003906,-0.1650391,-1.541985,0.4580153,-0.3969466,25.44706
7845,0.4042969,0.9060059,-0.1618652,-0.1832061,-2.419847,-2.648855,25.49412
8214,0.3701172,0.9455566,-0.1193848,-1.251908,-2.312977,0.03816794,25.44706
7819,0.3635254,0.9277344,-0.1247559,0.7938931,-3.175573,-0.2137404,25.54118
7855,0.3618164,0.9040527,-0.2416992,-2.320611,-8.473283,3.099237,25.54118
7820,0.244873,0.9780273,-0.1582031,-0.007633588,-2.038168,6.21374,25.63529
7824,0.3312988,0.8937988,-0.203125,-6.137404,0.6259542,6.900764,25.54118
7841,0.3916016,0.8945313,-0.197998,-6.885496,2.229008,4.824428,25.54118
7790,0.394043,0.9116211,-0.1384277,-4.40458,2.70229,1.320611,25.49412
8191,0.3557129,0.921875,-0.1445313,-8.541985,-2.328244,-1.557252,25.54118
7853,0.3193359,0.9196777,-0.1445313,-5.0,-2.549618,-0.4274809,25.49412
7795,0.3154297,0.9311523,-0.1538086,-4.984733,-2.458015,0.8549618,25.54118
7857,0.3317871,0.9580078,-0.1269531,-1.946565,1.251908,1.503817,25.4
7825,0.3005371,0.9282227,-0.1501465,-1.725191,0.4427481,2.580153,25.44706
7809,0.3498535,0.9082031,-0.1779785,-4.274809,0.9007633,2.816794,25.58823
7855,0.3554688,0.9118652,-0.1860352,-2.778626,2.442748,1.206107,25.54118
7824,0.3737793,0.9377441,-0.1589355,-2.442748,1.061069,-1.19084,25.58823
7851,0.3955078,0.9179688,-0.112793,-2.259542,-3.206107,-2.160305,25.54118
7800,0.3571777,0.9523926,-0.1418457,-2.503817,-1.687023,2.076336,25.54118
7807,0.34375,0.8908691,-0.213623,-1.152672,0.6183206,2.78626,25.58823
7777,0.3410645,0.925293,-0.189209,-2.618321,0.5267176,1.832061,25.49412
7837,0.4020996,0.9233398,-0.135498,-2.030534,-1.648855,-0.3816794,25.44706
7795,0.328125,0.9245605,-0.1184082,-1.419847,0.4045802,-0.03816794,25.49412
8140,0.342041,0.9243164,-0.1291504,0.7709923,-0.8549618,0.0,25.58823
7835,0.3410645,0.9321289,-0.1779785,0.8091603,-0.6335878,0.3129771,25.54118
7829,0.3291016,0.9348145,-0.1867676,-0.3740458,-0.9923664,1.343511,25.54118
7845,0.3503418,0.923584,-0.1723633,-3.0,0.05343511,1.038168,25.49412
7803,0.3452148,0.9331055,-0.1552734,-2.267176,0.2519084,1.152672,25.54118
7801,0.3549805,0.9338379,-0.1315918,-1.0,-0.4961832,1.450382,25.54118
7832,0.361084,0.9213867,-0.1315918,0.2900764,-0.6564885,0.4274809,25.58823
7820,0.3879395,0.909668,-0.142334,0.9007633,-0.5572519,-0.832061,25.54118
7848,0.3691406,0.9240723,-0.1499023,0.870229,-0.8625955,-1.480916,25.49412
7844,0.3400879,0.9213867,-0.1691895,-0.3282443,-1.549618,-0.7862596,25.54118
7832,0.3305664,0.923584,-0.184082,-0.6030535,-0.6412213,0.2290076,25.63529
7843,0.3356934,0.9282227,-0.1657715,-2.251908,-0.2213741,1.381679,25.49412
7817,0.3359375,0.9384766,-0.1594238,-2.625954,0.7633588,1.465649,25.58823
7781,0.3562012,0.9272461,-0.137207,-2.198473,-0.09160305,0.6946565,25.63529
8193,0.3535156,0.9277344,-0.1286621,-0.2137404,-0.3435115,0.09160305,25.58823
7886,0.3681641,0.923584,-0.1291504,1.625954,-1.389313,-0.1068702,25.58823
7798,1.169678,0.965332,0.3149414,106.0,250.1298,-48.40458,25.63529
7818,0.6809082,0.626709,-0.7119141,10.12977,14.54962,-54.70229,25.68235
7838,0.07666016,0.9726563,-0.6564941,21.60305,71.20611,-76.32061,25.63529
7847,-0.1201172,0.8691406,-0.3730469,-20.94657,17.67175,4.48855,25.68235
7816,0.161377,0.9731445,-0.3400879,-31.61832,11.41221,-5.320611,25.72941
7791,0.1420898,1.033447,-0.004638672,-30.38168,-22.31298,17.72519,25.68235
7795,0.1013184,0.9348145,-0.04760742,-20.61832,7.244275,25.52672,25.68235
7775,0.3776855,0.9997559,0.1005859,-6.236641,-5.160306,22.39695,25.58823
7801,0.2683105,0.9694824,0.05493164,4.625954,2.832061,30.1145,25.63529
7767,0.34375,0.8933105,-0.1169434,11.0916,-2.030534,29.31298,25.63529
7791,0.4182129,0.8986816,-0.1779785,14.29008,9.442748,20.91603,25.63529
7775,0.4353027,0.9328613,-0.177002,12.45802,4.251908,13.38931,25.77647
8216,0.3237305,0.9411621,-0.1408691,-1.923664,-2.19084,-6.145038,25.77647
7873,0.2856445,0.9445801,-0.1276855,0.6564885,-2.099237,-3.59542,25.58823
7872,0.293457,0.9353027,-0.1484375,2.007634,-1.847328,-0.7175572,25.68235
7834,0.3027344,0.9326172,-0.1699219,3.396947,-0.8396947,1.366412,25.72941
7813,0.3452148,0.9245605,-0.203125,3.091603,-0.8473283,1.648855,25.77647
7846,0.3530273,0.9216309,-0.2050781,0.7557252,-0.129771,0.5954198,25.63529
7803,0.348877,0.9182129,-0.1965332,-1.732824,-0.5343512,-0.02290076,25.68235
7814,0.3500977,0.9282227,-0.1689453,-2.328244,0.05343511,-0.832061,25.63529
7783,0.3322754,0.9277344,-0.152832,-1.641221,-0.519084,-0.2290076,25.63529
7823,0.3244629,0.9328613,-0.1530762,-0.3435115,-0.4961832,0.3053435,25.77647
7817,0.3278809,0.932373,-0.1682129,0.259542,-0.3206107,1.007634,25.63529
7844,0.3359375,0.9255371,-0.1811523,-0.1450382,-0.3435115,1.129771,25.68235
7850,0.3474121,0.9294434,-0.1855469,-1.908397,-0.259542,0.259542,25.68235
7814,0.3359375,0.9243164,-0.1569824,-1.709924,-0.6564885,0.05343511,25.58823
8230,0.3408203,0.9316406,-0.1538086,-0.9541985,-0.6641222,0.3740458,25.72941
7859,0.3242188,0.9274902,-0.1633301,-0.007633588,-0.6259542,1.0,25.72941
7854,0.3330078,0.9265137,-0.1665039,-0.04580153,-0.7709923,1.152672,25.68235
7839,0.3444824,0.9223633,-0.1850586,-0.2900764,-0.2366412,0.5877862,25.68235
7794,0.3491211,0.9211426,-0.1784668,-0.5725191,-0.740458,0.07633588,25.68235
7820,0.3452148,0.9309082,-0.1677246,-0.2519084,-0.6870229,-0.3435115,25.68235
7813,0.3364258,0.9296875,-0.1721191,-0.1450382,-1.053435,-0.05343511,25.68235
7768,0.3288574,0.9311523,-0.1760254,-0.3206107,-0.6183206,0.5725191,25.63529
7813,0.3269043,0.9255371,-0.1767578,-0.5572519,-0.3587786,0.5954198,25.72941
7795,0.3474121,0.9267578,-0.1716309,-0.8167939,-0.4122138,0.4198473,25.77647
7798,0.3444824,0.9228516,-0.1689453,-0.9923664,0.1908397,0.05343511,25.82353
7832,0.3398438,0.9260254,-0.157959,-0.9236641,-0.740458,-0.1679389,25.77647
7802,0.6181641,1.091064,0.04614258,136.7786,250.1298,-17.38168,25.82353
8182,0.9047852,0.7670898,-0.2741699,82.56489,217.7405,-36.67939,25.91765
7842,0.4455566,0.7719727,-0.4614258,15.36641,-13.53435,-43.28244,25.77647
7829,-0.140625,1.193848,-0.5698242,34.19847,126.4275,-81.05344,25.82353
7825,-0.001708984,0.8632813,-0.4064941,-31.38931,0.8778625,20.77863,25.77647
7807,0.1147461,0.9758301,-0.2905273,-26.9542,11.69466,9.961832,25.72941
7817,0.2275391,1.007813,0.02539063,-23.73282,-8.305344,23.77863,25.68235
7774,0.1860352,0.923584,-0.04541016,-16.42748,5.145038,32.61069,25.87059
7817,0.2260742,0.9814453,0.02880859,-2.21374,-2.290076,37.16794,25.82353
7763,0.4274902,0.9262695,0.007324219,7.114504,6.183206,23.82443,25.82353
7813,0.5441895,0.8737793,0.009277344,12.93893,5.603054,13.76336,25.77647
7792,0.5976563,0.8876953,-0.1403809,13.41985,1.427481,0.0610687,25.82353
7807,0.4807129,0.904541,-0.2424316,9.862596,0.1603053,-8.030535,25.87059
7786,0.3259277,0.918457,-0.2565918,1.442748,-0.8167939,-6.748092,25.87059
7800,0.2705078,0.9345703,-0.2094727,0.09160305,-0.8931297,-2.854962,25.77647
8176,0.2741699,0.9487305,-0.1833496,-1.122137,0.03816794,1.908397,25.87059
7856,0.3293457,0.9370117,-0.1552734,-0.5648855,-0.06870229,3.48855,25.82353
7760,0.3540039,0.9272461,-0.1384277,0.9541985,0.09160305,2.587786,25.87059
7808,0.390625,0.9162598,-0.1520996,1.061069,-1.709924,-0.09160305,25.82353
7818,0.3723145,0.9145508,-0.1828613,0.6183206,-0.8778625,-2.374046,26.71765
7792,0.347168,0.9204102,-0.1708984,-0.4274809,-1.603053,-2.305344,25.91765
7797,0.324707,0.9291992,-0.1606445,0.129771,-1.282443,-1.167939,25.72941
7772,0.3256836,0.9331055,-0.159668,0.09923664,-0.7862596,0.2061069,25.87059
7833,0.3261719,0.9262695,-0.182373,-0.5267176,-0.8473283,0.6564885,25.72941
7813,0.34375,0.9309082,-0.1762695,-0.7557252,-0.389313,0.9923664,25.87059
7772,0.3376465,0.9313965,-0.1650391,-1.015267,0.4961832,0.832061,25.87059
7809,0.3464355,0.9262695,-0.1616211,-1.328244,0.08396947,0.259542,25.77647
7817,0.3525391,0.9267578,-0.1660156,-1.053435,-0.480916,-0.03816794,25.82353
7839,0.3342285,0.9306641,-0.1621094,-0.6335878,-0.6259542,0.1374046,25.77647
8202,0.348877,0.9299316,-0.1547852,-0.9847328,-0.1832061,1.061069,25.77647
7869,0.3513184,0.9284668,-0.1501465,-0.7099237,-0.5877862,0.3969466,25.77647
7807,0.3415527,0.9296875,-0.1582031,-0.519084,0.2977099,0.259542,25.87059
7794,1.62793,0.8383789,0.008789063,101.9084,250.1298,-40.58779,25.82353
7787,0.6625977,0.5585938,-0.4926758,25.54198,-10.0,-68.52672,25.91765
7828,-0.08276367,0.8811035,-0.7451172,21.15267,73.41985,-86.35878,25.77647
7838,-0.2631836,1.066406,-0.09765625,-1.862595,33.16794,-3.78626,25.91765
7776,0.1193848,0.9277344,-0.3557129,-37.68702,6.091603,1.625954,25.87059
7806,0.1589355,0.9682617,-0.09545898,-33.65649,-10.57252,14.09924,25.82353
7815,0.1318359,0.984375,0.04931641,-20.0458,-1.015267,31.01527,26.71765
7797,0.1838379,0.9602051,0.06298828,-8.030535,8.030535,44.47328,25.77647
7737,0.2409668,0.940918,0.07910156,3.549618,-5.145038,35.64122,26.71765
7771,0.3359375,0.9179688,-0.06176758,15.45038,1.961832,28.87023,25.82353
8154,0.4257813,0.9272461,-0.1799316,15.0,7.839694,17.55725,25.77647
7845,0.5300293,0.8857422,-0.2062988,12.25954,1.503817,6.152672,26.71765
7832,0.5581055,0.8474121,-0.3149414,5.374046,-2.435115,-5.633588,26.01176
7803,0.4077148,0.9128418,-0.2421875,-0.2061069,0.3053435,-9.847328,26.05882
7832,0.3012695,0.9472656,-0.1540527,-1.167939,-3.129771,-6.946565,25.91765
7819,0.2609863,0.9428711,-0.1472168,0.7633588,-3.160305,-2.839695,26.71765
7776,0.2626953,0.9455566,-0.175293,1.48855,-1.358779,1.076336,25.91765
7795,0.2939453,0.9396973,-0.1882324,1.564886,-0.832061,3.541985,25.87059
7771,0.345459,0.9189453,-0.1894531,0.778626,0.4274809,3.091603,26.71765
7802,0.3781738,0.9199219,-0.1789551,-0.1679389,0.03816794,0.1450382,25.87059
7792,0.387207,0.9187012,-0.1733398,-1.312977,-1.954198,-1.984733,26.01176
7824,0.3408203,0.9311523,-0.168457,-0.8931297,-1.305344,-2.022901,25.87059
7807,0.3051758,0.9296875,-0.1674805,-0.6641222,-0.8931297,-0.2290076,25.87059
7809,0.3125,0.9335938,-0.1713867,0.1755725,-0.9007633,1.572519,25.91765
8174,0.3300781,0.9287109,-0.1833496,-0.2366412,-0.3129771,2.015267,26.71765
7850,0.3574219,0.9243164,-0.171875,-1.21374,-0.129771,0.6793893,25.91765
16255,0.3676758,0.9169922,-0.1826172,-2.21374,-0.1603053,-0.740458,25.87059
7894,0.3203125,0.9401855,-0.1477051,-0.9770992,-0.5801527,-0.1374046,25.87059
7834,0.3156738,0.9365234,-0.1630859,-0.3053435,-0.5877862,1.129771,25.91765
7784,0.3339844,0.9291992,-0.1784668,0.1679389,-0.778626,1.587786,26.71765
7807,0.3510742,0.9240723,-0.1816406,-0.6946565,-0.4122138,1.160305,25.87059
7782,0.06616211,0.5371094,-0.3615723,88.01527,250.1298,14.35114,25.87059
7795,0.7905273,0.824707,-0.564209,64.43511,83.78626,-35.77863,26.71765
7828,0.5834961,1.069336,-0.3637695,25.80916,-3.717557,-51.89313,26.01176
7831,-0.1818848,0.6396484,-0.7387695,-2.587786,78.91603,-2.221374,26.71765
7811,0.5881348,0.958252,-0.4240723,-9.687023,14.78626,-12.12977,25.91765
7830,0.1872559,1.045166,-0.06738281,-26.85496,-1.480916,-2.89313,26.01176
7802,0.1584473,0.8781738,-0.1098633,-25.92366,-2.641221,7.374046,25.91765
8213,0.2651367,0.9287109,-0.04394531,-9.366412,-2.396947,12.05344,26.01176
7829,0.2978516,0.9914551,-0.00390625,0.3129771,-6.061069,14.75572,26.71765
7803,0.2524414,0.9516602,-0.07714844,5.503817,3.015267,18.84733,26.01176
7804,0.3249512,0.9284668,-0.1506348,8.824428,2.694656,19.54962,26.05882
7763,0.3378906,0.918457,-0.197998,8.045801,0.2748091,19.74809,26.01176
7779,0.4313965,0.8911133,-0.2385254,4.38168,1.351145,12.22137,26.01176
7809,0.4780273,0.8896484,-0.2416992,0.740458,0.4885496,2.557252,26.15294
7840,0.4616699,0.8977051,-0.2099609,-2.816794,-0.6259542,-4.572519,26.01176
7806,0.3347168,0.9291992,-0.1437988,-2.267176,-1.045802,-4.938931,26.05882
7785,0.2651367,0.9414063,-0.1196289,0.4580153,-1.80916,-1.10687,26.01176
7788,0.2773438,0.9443359,-0.1518555,2.427481,-1.175573,2.045802,26.01176
7780,0.3078613,0.9375,-0.2041016,2.526718,-0.4198473,2.541985,26.01176
7809,0.3654785,0.9206543,-0.2058105,0.03816794,-0.5572519,1.007634,26.05882
7834,0.3813477,0.8996582,-0.2033691,-2.709924,-0.8625955,-1.374046,26.71765
8226,0.3400879,0.9213867,-0.1970215,0.4503817,-0.4045802,0.9694656,26.71765
7876,0.3518066,0.9221191,-0.1992188,-1.129771,-0.6030535,0.1984733,26.15294
7802,0.8647461,0.9404297,0.02758789,110.6947,250.1298,-5.961832,26.01176
7773,0.6940918,0.4851074,-0.3955078,46.44275,88.20611,-31.30534,26.15294
7815,0.4521484,0.9016113,-0.5380859,26.49618,-14.60305,-25.67939,26.01176
7798,-0.1113281,0.9770508,-0.7827148,8.022901,97.80153,-19.43511,26.05882
7765,0.6064453,0.9316406,-0.2009277,-17.38931,18.81679,-14.96183,26.05882
7806,0.121582,0.9724121,-0.2033691,-30.19847,-3.442748,-1.755725,26.01176
7826,0.2453613,0.980957,0.01586914,-18.85496,-10.61832,3.587786,26.01176
7782,0.2006836,0.9558105,-0.04296875,-12.26718,0.3358779,8.717557,26.05882
7780,0.2717285,0.9333496,-0.03662109,-4.847328,-2.541985,11.53435,26.01176
7776,0.25,0.9492188,-0.0793457,3.496183,0.01526718,14.33588,26.01176
7832,0.3344727,1.003418,0.00390625,13.41221,0.6870229,15.99237,26.15294
7749,0.315918,0.9526367,-0.1811523,9.419847,2.053435,17.22901,26.05882
8172,0.3410645,0.9260254,-0.2460938,5.19084,0.2213741,15.47328,26.05882
7795,0.3652344,0.9130859,-0.234375,1.557252,0.9083969,10.20611,26.01176
7785,0.3662109,0.932373,-0.1860352,-0.2519084,0.6335878,6.21374,26.05882
7818,0.3901367,0.9267578,-0.168457,-2.732824,-0.8931297,1.496183,26.10588
7827,0.3666992,0.9204102,-0.1442871,-1.709924,-0.1832061,-1.274809,26.05882
7819,0.3422852,0.9279785,-0.1625977,-0.04580153,-2.503817,-1.442748,26.15294
7810,0.3161621,0.9401855,-0.170166,1.458015,-1.312977,-0.9160305,26.01176
7797,0.2993164,0.9233398,-0.201416,0.03053435,-0.7938931,0.1068702,26.10588
7772,0.3115234,0.9245605,-0.1906738,0.8625955,0.519084,0.3129771,26.05882
7803,0.3369141,0.9355469,-0.1848145,0.06870229,-0.3587786,-0.2442748,26.01176
7800,0.3266602,0.9304199,-0.2009277,-0.9312977,-0.4580153,-0.7022901,26.05882
7830,0.3188477,0.9333496,-0.1796875,-0.4580153,-0.1832061,-0.4122138,26.05882
7790,0.3146973,0.9348145,-0.1721191,0.7251908,0.3129771,-0.0610687,26.10588
8179,0.3203125,0.9421387,-0.1677246,-1.091603,-0.6564885,0.5267176,26.15294
7819,0.3215332,0.9321289,-0.1955566,-0.7480916,-0.2137404,0.5267176,26.01176
7795,0.3256836,0.9301758,-0.1906738,-1.114504,-0.7251908,0.5877862,26.15294
7812,0.3259277,0.9345703,-0.1730957,-1.152672,-0.007633588,0.2442748,26.10588
7808,0.3227539,0.9384766,-0.1699219,-1.503817,-0.2061069,0.4656488,26.15294
7846,0.3225098,0.932373,-0.1635742,-0.9694656,-0.3587786,0.5419847,26.10588
7823,0.3305664,0.9343262,-0.1723633,-0.4961832,-0.5954198,0.3358779,26.10588
7816,0.3225098,0.9387207,-0.1743164,-0.8778625,-0.5954198,0.7251908,26.05882
7796,-0.1499023,0.4956055,-0.7443848,103.1145,250.1298,83.75572,26.15294
7821,1.214355,1.093506,0.07788086,113.6641,240.6336,-18.94657,26.15294
7821,0.5292969,0.8527832,-0.1999512,36.43512,20.87786,-29.0687,26.15294
7820,0.2060547,0.9873047,-0.8022461,-2.40458,45.03053,119.6565,26.15294
7823,-0.03417969,0.9516602,-0.520752,-9.328244,34.75573,11.51145,26.24706
7840,0.1381836,0.949707,-0.4165039,-28.46565,-1.152672,-11.09924,26.10588
8219,0.1472168,0.9768066,-0.1020508,-27.18321,-9.312977,1.015267,26.2
7832,0.1989746,0.9562988,-0.04541016,-13.84733,0.2290076,6.633588,26.15294
7812,0.2199707,0.9682617,0.001220703,-6.900764,-2.961832,11.0916,26.2
7778,0.2458496,0.9382324,-0.06567383,-0.9312977,0.480916,13.59542,26.2
7820,0.3337402,0.9492188,-0.07836914,6.21374,-0.6564885,12.73282,26.15294
7777,0.3266602,0.9365234,-0.1230469,10.24428,1.664122,13.06107,26.10588
16179,0.3195801,0.8935547,-0.2160645,11.9084,1.541985,13.73282,26.24706
7765,0.3273926,0.932373,-0.2924805,6.442748,2.206107,12.59542,26.10588
7809,0.3562012,0.923584,-0.2519531,-0.07633588,-0.8625955,9.175572,26.15294
7849,0.3842773,0.9023438,-0.2407227,-3.21374,-2.129771,5.068702,26.10588
7800,0.3549805,0.9169922,-0.1787109,-2.40458,-0.6259542,1.89313,26.2
7793,0.3256836,0.9423828,-0.1467285,-1.305344,0.08396947,-0.03053435,26.15294
7757,0.3430176,0.9401855,-0.1452637,-0.5648855,-0.778626,-1.496183,26.24706
7819,0.3308105,0.9370117,-0.1630859,1.923664,-1.679389,-1.557252,26.24706
8201,0.3166504,0.9335938,-0.1765137,-1.335878,0.3206107,-0.4351145,26.2
7888,0.3061523,0.9370117,-0.1611328,-1.366412,-0.5114504,0.3969466,26.10588
7833,0.3215332,0.9394531,-0.1621094,0.2824428,-0.5725191,0.9160305,26.24706
7783,0.3044434,0.9316406,-0.1884766,-0.007633588,-0.5877862,1.122137,26.10588
7852,0.3225098,0.9289551,-0.1896973,-0.6183206,-0.08396947,0.5114504,26.15294
7830,0.3344727,0.9282227,-0.1914063,-2.221374,-0.007633588,0.05343511,26.2
7835,0.3183594,0.9338379,-0.1699219,-1.931298,-0.6030535,0.259542,26.15294
7784,0.3168945,0.9335938,-0.1623535,-0.4351145,-0.3740458,0.6412213,26.2
7804,0.3242188,0.9333496,-0.177002,0.03053435,-1.076336,1.022901,26.10588
7833,0.314209,0.934082,-0.1940918,0.1603053,-0.8244275,0.9312977,26.15294
7809,0.3295898,0.9335938,-0.1982422,-0.5877862,-0.6717557,0.4122138,26.15294
7816,0.1655273,0.8125,-0.1376953,94.13741,250.1298,-47.25191,26.24706
7832,0.9187012,0.6765137,-0.6674805,58.15267,63.41221,-45.50382,26.2
7786,0.1721191,1.007324,-0.7668457,10.0229,2.091603,-32.29771,26.29412
8226,-0.1538086,0.8359375,-0.671875,-25.66412,40.70229,17.64886,26.15294
7848,0.1191406,0.9460449,-0.3549805,-33.44275,4.870229,42.1832,26.2
7816,0.3669434,1.297119,0.1264648,-34.93893,-34.31298,11.82443,26.34118
7814,0.05419922,0.885498,-0.1445313,-21.60305,6.664122,21.12214,26.2
7812,0.3432617,0.9572754,-0.01855469,-6.587786,-4.068702,24.0,26.2
7797,0.3571777,1.001465,0.0402832,5.923664,1.358779,21.79389,26.24706
7762,0.3198242,0.925293,-0.1276855,8.267176,-1.320611,17.40458,26.24706
7789,0.3706055,0.9057617,-0.1899414,12.06107,-1.274809,11.37405,26.29412
7813,0.3764648,0.9206543,-0.2392578,12.68702,-1.381679,6.877862,26.2
7805,0.3691406,0.8769531,-0.2766113,13.01527,4.748092,2.129771,26.15294
7806,0.375,0.925293,-0.404541,0.6870229,-0.6946565,-2.847328,26.29412
7769,0.3186035,0.9174805,-0.277832,-4.89313,0.5343512,-4.312977,26.2
7841,0.2709961,0.9399414,-0.2255859,-5.389313,0.09160305,-2.0,26.24706
7816,0.2580566,0.949707,-0.159668,-2.328244,-0.2977099,0.7022901,26.24706
8167,0.2958984,0.9501953,-0.1694336,0.1068702,-0.2977099,1.664122,26.2
7813,0.3198242,0.9414063,-0.1884766,1.076336,-1.610687,0.9694656,26.2
7794,0.3288574,0.9406738,-0.204834,2.977099,-1.030534,-0.04580153,26.2
7824,0.3234863,0.9311523,-0.2475586,1.221374,-1.221374,-0.2366412,26.24706
7821,0.3161621,0.9238281,-0.2546387,-3.366412,-0.961832,-0.9389313,26.29412
7841,0.3076172,0.935791,-0.2404785,-2.679389,-0.4732824,-0.610687,26.24706
7776,0.2976074,0.9460449,-0.1994629,-3.48855,0.08396947,-0.3587786,26.24706
7802,0.2946777,0.9387207,-0.1889648,-1.496183,0.2519084,0.3053435,26.24706
7815,0.3044434,0.9384766,-0.1835938,-0.7862596,-0.6030535,0.740458,26.2
7792,0.3029785,0.9370117,-0.2133789,0.9541985,-0.6793893,0.778626,26.2
7812,0.3059082,0.935791,-0.2236328,0.3282443,-0.7328244,0.6717557,26.24706
7836,0.3132324,0.9272461,-0.2248535,-0.4503817,-0.7938931,0.5877862,26.2
7773,0.3139648,0.9309082,-0.2294922,-1.007634,-0.3358779,0.4274809,26.24706
7827,0.3085938,0.9370117,-0.2160645,-1.351145,-0.3053435,-0.04580153,26.29412
8211,0.3022461,0.9387207,-0.1994629,-0.7099237,-0.5114504,0.2061069,26.29412
7851,1.36499,1.038574,-0.3781738,80.30534,250.1298,-46.03053,26.29412
7829,0.6098633,0.9301758,-0.3010254,-0.3435115,20.70992,-47.15267,26.34118
7853,-0.1325684,1.04248,-0.4494629,-21.17557,-10.62595,-43.31298,26.29412
7832,-0.5983887,0.9287109,-0.3618164,-16.43511,48.22901,26.33588,26.34118
7767,0.1154785,1.046631,-0.0324707,-2.251908,18.85496,55.0687,26.29412
7806,0.1323242,0.9282227,-0.02197266,-0.9847328,2.099237,48.33588,26.24706
7787,0.3657227,0.9104004,-0.1130371,-3.198473,-12.38168,29.59542,26.24706
7756,0.2915039,0.9328613,-0.1999512,-1.045802,4.129771,33.16031,26.34118
7806,0.4001465,0.9316406,-0.06762695,9.274809,-0.389313,22.41985,26.38824
7784,0.3820801,0.9143066,-0.2109375,17.25954,-1.450382,18.36641,26.34118
7801,0.3972168,0.9001465,-0.3066406,7.694656,-1.137405,9.442748,26.24706
7773,0.4116211,0.8898926,-0.3237305,1.206107,0.05343511,0.9236641,26.29412
7800,0.3620605,0.9143066,-0.2756348,-0.8931297,0.7633588,-3.534351,26.29412
8252,0.2980957,0.9475098,-0.1811523,0.6030535,-0.6717557,0.6564885,26.38824
7839,0.3095703,0.9372559,-0.1958008,1.183206,-1.465649,0.2977099,26.29412
7847,0.3110352,0.9313965,-0.215332,0.1221374,-1.389313,-0.5038168,26.34118
7821,0.3039551,0.934082,-0.230957,-0.7251908,-0.351145,-1.045802,26.29412
7826,0.2927246,0.9438477,-0.2392578,-1.740458,0.1832061,-0.5419847,26.29412
7827,0.2888184,0.9348145,-0.2194824,-2.709924,-0.4427481,-0.1679389,26.34118
7838,0.2973633,0.9389648,-0.1965332,-1.51145,-0.259542,-0.3053435,26.24706
7844,0.2971191,0.9394531,-0.1933594,-0.648855,-0.8854962,-0.2137404,26.29412
7817,0.3022461,0.9433594,-0.2058105,-0.7862596,-1.122137,-0.2213741,26.34118
7830,0.293457,0.9375,-0.2163086,-0.519084,-0.6259542,0.04580153,26.24706
7829,0.2988281,0.9423828,-0.2202148,-0.610687,-0.2748091,0.1145038,26.24706
7788,0.2932129,0.9406738,-0.220459,-0.6793893,-0.4885496,0.2137404,26.34118
7829,0.295166,0.9387207,-0.203125,-0.9389313,-0.4122138,0.3740458,26.29412
8205,0.2993164,0.9404297,-0.2058105,-0.6335878,-0.3969466,0.2824428,26.34118
7856,0.307373,0.9343262,-0.2062988,-0.259542,-0.389313,0.1145038,26.34118
7814,0.2900391,0.9326172,-0.2045898,-0.1221374,-0.5648855,0.6030535,26.29412
7797,0.3034668,0.9387207,-0.2114258,0.1526718,-0.6412213,0.4351145,26.24706
7816,1.570557,1.177979,-0.3305664,113.542,250.1298,-58.60305,26.34118
7814,1.019043,0.8859863,-0.8754883,19.32061,17.9313,-76.00764,26.34118
7852,-0.2072754,1.039795,-0.9416504,-21.1145,23.65649,-70.41222,26.29412
7802,-0.5402832,0.9572754,-0.5705566,-32.66412,57.14504,7.984733,26.29412
7795,0.08300781,1.001465,0.001220703,-34.67939,4.908397,33.33588,26.4353
7733,0.07836914,0.9401855,0.0234375,-18.33588,12.55725,44.70992,26.34118
7782,0.2709961,1.01709,-0.009765625,-8.557252,5.061069,19.79389,26.24706
7799,0.3066406,0.9787598,0.01147461,-0.5648855,-4.145038,24.85496,26.29412
7770,0.3105469,0.9106445,-0.2163086,1.854962,-0.7175572,27.76336,26.4353
7795,0.361084,0.9326172,-0.08959961,7.908397,1.671756,20.69466,26.34118
8160,0.3588867,0.9562988,-0.111084,13.65649,-3.221374,14.39695,26.34118
7798,0.3757324,0.9301758,-0.1887207,14.09924,-3.366412,6.717557,26.38824
7802,0.3547363,0.9091797,-0.2702637,14.19847,0.8778625,-0.2366412,26.38824
7803,0.3640137,0.9233398,-0.3688965,10.22137,-1.305344,-4.717557,26.4353
7813,0.3193359,0.8999023,-0.3696289,0.0610687,1.725191,-7.229008,26.29412
7811,0.2631836,0.9370117,-0.3154297,-5.70229,0.4885496,-6.633588,26.34118
7818,0.2189941,0.9575195,-0.203125,-7.931298,0.4503817,-3.19084,26.38824
7802,0.2299805,0.9589844,-0.1738281,-4.793893,0.1221374,0.3129771,26.24706
7817,0.2458496,0.9594727,-0.1630859,-2.198473,-0.7633588,2.145038,26.29412
7782,0.2744141,0.9528809,-0.1760254,-0.3664122,-1.030534,2.290076,26.38824
7810,0.2998047,0.9411621,-0.2114258,2.40458,-1.610687,0.480916,26.4353
7816,0.3100586,0.932373,-0.2473145,0.5648855,-1.312977,-1.305344,26.38824
7827,0.2932129,0.9414063,-0.2553711,-1.152672,-1.167939,-2.59542,26.38824
7811,0.2700195,0.9421387,-0.2351074,-2.145038,-0.1450382,-2.48855,26.34118
8222,0.2666016,0.9438477,-0.2224121,-2.664122,-0.5038168,-2.022901,26.38824
7855,0.2683105,0.9443359,-0.2019043,-2.458015,-0.8854962,-1.671756,26.38824
7846,0.2697754,0.9440918,-0.204834,-1.236641,-0.3969466,-1.580153,26.34118
7811,0.2736816,0.9375,-0.203125,0.4885496,-0.6412213,-1.564886,26.34118
7830,0.2729492,0.9489746,-0.2124023,0.3435115,-1.038168,-1.312977,26.4353
7808,0.2709961,0.9448242,-0.2241211,0.007633588,-0.610687,-1.290076,26.38824
7796,0.2072754,0.8605957,-0.3530273,133.6718,250.1298,-24.14504,26.4353
7844,0.9633789,0.7463379,-0.2116699,109.3893,199.6718,-64.771,26.38824
7829,0.548584,1.036865,-0.8620605,86.74046,54.0,-95.07633,26.48235
7832,-0.1379395,1.081543,-0.9250488,8.290076,-3.114504,-42.96947,26.4353
7810,-0.2150879,0.911377,-0.7453613,-30.55725,33.51145,-25.37405,26.38824
7805,-0.2773438,0.9765625,-0.3376465,-47.72519,27.44275,17.79389,26.38824
7778,0.05957031,1.024414,0.04077148,-31.74046,3.770992,45.41985,26.4353
7789,0.08789063,1.029785,0.05444336,-17.03817,12.19084,24.91603,26.48235
8200,0.362793,0.9238281,-0.2060547,8.603053,2.977099,28.41221,26.34118
7854,0.482666,0.9223633,-0.1096191,7.419847,-9.0,9.801527,26.38824
7818,0.4047852,0.9094238,-0.1689453,10.89313,-3.954198,1.366412,26.4353
7778,0.4064941,0.9067383,-0.2539063,14.90076,-2.351145,-8.419847,26.38824
7804,0.3046875,0.939209,-0.4367676,14.44275,3.755725,-13.12977,26.34118
7816,0.293457,0.9121094,-0.328125,3.374046,3.152672,-14.67939,26.38824
7824,0.2536621,0.8979492,-0.3591309,-5.816794,0.4274809,-15.51145,26.34118
7830,0.234375,0.9494629,-0.2700195,-9.587787,-1.526718,-15.32824,26.48235
7812,0.2177734,0.9797363,-0.1552734,-7.419847,-0.02290076,-11.70229,26.34118
7883,0.2368164,0.9438477,-0.1665039,-4.931298,-0.7709923,-9.641221,26.38824
7813,0.2131348,0.9526367,-0.1811523,-2.236641,0.1450382,-5.91603,26.4353
7783,0.2248535,0.9682617,-0.1804199,0.8549618,-1.473282,-3.923664,26.4353
7818,0.2399902,0.9492188,-0.2045898,1.908397,-1.335878,-2.587786,26.38824
7809,0.2302246,0.9367676,-0.2617188,1.549618,-0.7862596,-1.641221,26.4353
8232,0.2458496,0.9382324,-0.2529297,-2.290076,-0.8396947,-1.450382,26.4353
7853,0.253418,0.9543457,-0.2487793,-2.977099,-0.3587786,-1.267176,26.38824
7818,0.2346191,0.9526367,-0.223877,-3.068702,0.08396947,-0.4198473,26.29412
7830,0.2387695,0.9450684,-0.197998,-2.870229,-0.1526718,0.2290076,26.4353
7809,0.2473145,0.951416,-0.2058105,-0.9007633,-0.2977099,0.832061,26.4353
7820,0.2539063,0.9580078,-0.2006836,-0.02290076,-0.9770992,0.7633588,26.4353
7810,0.2570801,0.9443359,-0.2133789,1.091603,-0.5877862,0.2137404,26.48235
7810,0.2646484,0.9458008,-0.2248535,0.7099237,-0.7328244,-0.2900764,26.4353
7838,0.2509766,0.9411621,-0.2370605,0.5419847,-0.5801527,-0.480916,26.38824
7798,0.2478027,0.953125,-0.2255859,0.02290076,-0.7099237,-0.2137404,26.52941
7815,0.2392578,0.9528809,-0.2124023,0.3129771,-0.3740458,0.3587786,26.38824
7824,0.009033203,0.8254395,-0.409668,151.687,250.1298,-25.52672,26.52941
16202,1.203613,1.037842,-0.2011719,121.5191,155.6565,-70.67175,26.4353
7832,0.3051758,0.9240723,-0.8452148,48.89313,18.48855,-88.31298,26.48235
8175,-0.3010254,1.115234,-0.7973633,-23.90076,14.59542,-42.21374,26.48235
7862,-0.5168457,1.063232,-0.4208984,-41.65649,50.19847,24.34351,26.4353
7810,0.06347656,1.015625,-0.07104492,-36.64885,9.763359,108.5725,26.38824
7801,-0.2502441,0.9389648,0.2001953,-26.25954,-13.8855,55.54962,26.4353
7806,0.1965332,0.9414063,0.07739258,-11.39695,1.938931,41.96183,26.48235
7830,0.3164063,0.9594727,0.02832031,3.549618,-14.29008,30.69466,26.48235
7827,0.293457,0.947998,-0.2021484,11.51908,-0.3587786,36.38168,26.48235
7808,0.3344727,0.8981934,-0.229248,7.862596,5.122138,34.89313,26.38824
7792,0.5148926,0.9165039,-0.09277344,5.480916,-6.992366,14.29771,26.38824
7795,0.4333496,0.9067383,-0.1506348,8.053435,-3.068702,3.48855,26.34118
7831,0.4289551,0.9050293,-0.1884766,10.51908,-2.946565,-7.244275,26.38824
7803,0.348877,0.9350586,-0.1843262,14.38168,-0.129771,-11.96183,26.4353
7791,0.3100586,0.9519043,-0.1958008,16.81679,5.816794,-13.77099,26.38824
7791,0.262207,0.9084473,-0.4104004,4.748092,1.870229,-15.29008,26.52941
8180,0.2373047,0.9147949,-0.3728027,-6.175572,-0.1145038,-16.12977,26.52941
7858,0.2351074,0.9501953,-0.260498,-11.14504,-0.8625955,-12.38931,26.52941
7816,0.2473145,0.9631348,-0.1560059,-8.679389,-0.3435115,-10.71756,26.38824
7817,0.2336426,0.9697266,-0.109375,-4.984733,-0.3206107,-7.412214,26.4353
7857,0.2412109,0.9545898,-0.1411133,-2.480916,-1.717557,-5.267176,26.38824
7801,0.2451172,0.9587402,-0.1567383,0.5343512,-2.061069,-3.099237,26.4353
7781,0.2502441,0.9521484,-0.1936035,2.610687,-2.053435,-2.21374,26.48235
7812,0.2541504,0.9475098,-0.2260742,1.526718,-1.51145,-2.381679,26.38824
7846,0.2565918,0.9443359,-0.237793,-0.7862596,-1.068702,-2.19084,26.4353
7846,0.2416992,0.9521484,-0.2387695,-3.419847,-0.2824428,-1.870229,26.52941
7810,0.2392578,0.9526367,-0.2099609,-3.068702,0.07633588,-0.6412213,26.57647
7800,0.2404785,0.9577637,-0.1767578,-2.816794,-0.1526718,0.389313,26.52941
7818,0.2382813,0.9492188,-0.1674805,-1.801527,-0.3664122,1.19084,26.38824
7816,0.2563477,0.9501953,-0.175293,-0.1755725,-0.3664122,1.091603,26.38824
8098,0.7800293,0.9138184,-0.1137695,106.0687,250.1298,-39.27481,26.4353
7832,1.121826,0.8696289,0.04003906,80.80916,62.84733,-79.48092,26.62353
7795,0.2844238,0.9484863,0.2937012,45.57252,37.32824,-86.70229,26.48235
7834,-0.1682129,0.8686523,-1.114746,9.251908,21.99237,-72.34351,26.48235
7833,-0.6501465,1.074707,-0.6831055,-21.75573,36.19847,8.778625,26.52941
7790,-0.1274414,1.05835,-0.3078613,-44.87786,15.73282,26.47328,26.4353
7798,0.02929688,0.9648438,-0.0769043,-34.25191,-2.038168,84.1832,26.38824
7815,0.08251953,0.979248,0.114502,-18.38168,-14.35114,78.51908,26.4353
7797,0.4709473,0.9689941,0.06420898,-6.10687,-8.007633,31.12214,26.48235
7786,0.2126465,0.9460449,0.002685547,5.671756,-8.496183,33.33588,26.52941
7839,0.3481445,0.9741211,-0.1931152,12.40458,-5.862596,34.41985,26.48235
7742,0.3273926,0.8908691,-0.3059082,5.969466,5.526718,35.14504,26.48235
7818,0.526123,0.8894043,-0.1791992,5.89313,-3.656489,13.70229,26.48235
7786,0.4155273,0.9382324,-0.1381836,5.351145,-0.5419847,3.473282,26.57647
8194,0.4240723,0.9289551,-0.1577148,8.526717,-2.717557,-9.236641,26.52941
7826,0.3291016,0.9221191,-0.2155762,8.664123,0.07633588,-13.0229,26.52941
7805,0.2910156,0.9360352,-0.2180176,9.824428,0.7938931,-14.58015,26.48235
7846,0.2541504,0.9477539,-0.2578125,6.946565,0.4351145,-14.74809,26.4353
7813,0.21875,0.9509277,-0.2849121,2.877863,0.4427481,-15.72519,26.57647
7799,0.2265625,0.9365234,-0.3044434,-4.244275,1.21374,-14.62595,26.57647
7817,0.2290039,0.9445801,-0.2431641,-8.366412,1.053435,-11.29008,26.4353
7846,0.244873,0.9550781,-0.1733398,-8.580153,-1.229008,-7.396946,26.52941
7833,0.2319336,0.9599609,-0.1381836,-4.435114,-1.206107,-5.870229,26.38824
7818,0.2172852,0.9604492,-0.1418457,-1.160305,-0.7328244,-3.450382,26.52941
7799,0.2363281,0.951416,-0.1589355,1.007634,-0.9160305,-1.564886,26.62353
7779,0.2573242,0.9545898,-0.1933594,1.267176,-1.977099,-1.244275,26.48235
7813,0.2587891,0.9462891,-0.2268066,0.4198473,-1.145038,-1.160305,26.52941
8208,0.2536621,0.9519043,-0.2270508,-0.9770992,-0.09923664,-1.274809,26.57647
7903,0.2458496,0.9545898,-0.2102051,-2.51145,-0.03053435,-0.9541985,26.57647
7860,0.2470703,0.9494629,-0.1904297,-3.335878,-0.259542,-0.2442748,26.48235
7842,0.2375488,0.9543457,-0.1826172,-2.412214,-0.5343512,0.8625955,26.52941
7784,0.25,0.9536133,-0.1806641,-0.1374046,-0.3129771,1.221374,26.57647
7852,0.2529297,0.9467773,-0.1816406,0.6183206,-0.8015267,1.099237,26.52941
7781,0.06445313,0.784668,-0.2961426,89.38168,250.1298,-31.83206,26.52941
7808,0.8383789,0.8320313,-0.4943848,84.64886,216.1679,-59.73283,26.52941
7792,0.5566406,0.8581543,-0.2927246,25.92366,44.53435,-79.74046,26.48235
7820,0.2358398,0.9978027,-0.171875,-1.549618,3.061069,-63.64122,26.52941
7787,-0.1113281,0.9140625,-0.2507324,0.1450382,11.64122,-43.1145,26.52941
7795,0.04614258,0.8586426,-1.020508,40.8855,20.67175,-46.96947,26.52941
7816,-0.1677246,1.067139,-0.06274414,13.63359,11.53435,-18.12977,26.57647
7824,-0.2138672,0.9328613,-0.4360352,-10.10687,-2.946565,10.80916,26.62353
8213,-0.07714844,1.020508,-0.1472168,-9.022901,-0.2748091,61.57252,26.57647
7844,0.1364746,0.8041992,-0.04956055,-6.114504,-18.74046,40.86259,26.57647
7871,0.2768555,0.9924316,-0.1870117,7.824428,4.541985,40.80153,26.62353
7803,0.3688965,0.8925781,-0.1791992,-3.748092,3.122137,30.61069,26.48235
7817,0.4318848,0.9138184,-0.2421875,-5.175572,-2.603053,17.00763,26.62353
7766,0.440918,0.9121094,-0.1818848,-2.335878,0.7557252,5.534351,26.67059
7823,0.4106445,0.9152832,-0.154541,-1.671756,-0.2671756,-3.687023,26.52941
7822,0.331543,0.942627,-0.1325684,-0.480916,-0.7480916,-6.572519,26.57647
7799,0.2832031,0.9387207,-0.1416016,2.503817,-1.160305,-7.59542,26.52941
7821,0.2785645,0.953125,-0.1499023,6.061069,-1.618321,-7.091603,26.57647
7820,0.2624512,0.9421387,-0.1992188,5.206107,-0.6335878,-6.0,26.57647
7807,0.2734375,0.9316406,-0.2165527,3.977099,-1.572519,-6.61832,26.4353
7788,0.2819824,0.9677734,-0.1018066,3.40458,7.259542,-7.778626,26.48235
7813,0.2424316,1.01709,-0.1784668,0.4045802,-1.099237,-6.732824,26.52941
8186,0.2429199,0.9492188,-0.1455078,-2.916031,-0.778626,-0.3664122,26.67059
7815,0.2502441,0.9506836,-0.1687012,1.167939,-0.7709923,0.8473283,26.48235
7799,0.2614746,0.953125,-0.1904297,1.129771,-1.732824,0.7328244,26.62353
7790,0.2670898,0.9477539,-0.2189941,-0.5419847,-0.9312977,0.4732824,26.62353
7798,0.2666016,0.9377441,-0.2143555,-3.030534,-0.4732824,0.1374046,26.52941
7814,0.2734375,0.947998,-0.1992188,-3.549618,-0.4885496,-0.08396947,26.57647
7806,0.2583008,0.9560547,-0.1682129,-1.633588,0.09160305,-0.2366412,26.62353
7798,0.2563477,0.9482422,-0.1618652,-0.2977099,-0.3664122,0.06870229,26.57647
7798,0.2658691,0.9475098,-0.1665039,0.4885496,-1.229008,0.2748091,26.62353
7806,0.2661133,0.9406738,-0.1879883,1.099237,-0.778626,0.2442748,26.57647
7783,0.2619629,0.9484863,-0.1921387,0.5648855,-0.2290076,-0.1908397,26.62353
7822,0.2636719,1.014648,-0.390625,98.27481,250.1298,-39.87023,26.67059
7841,1.987549,0.7382813,-0.4335938,73.70229,250.1298,-53.50382,26.57647
7808,1.243652,0.8879395,-0.253418,6.221374,-12.89313,-72.96183,26.62353
8205,0.01074219,1.068604,-0.1052246,-12.70992,14.22901,-79.8855,26.57647
7865,-0.1999512,0.9020996,-0.3398438,10.16031,59.41221,-47.12214,26.57647
7852,-0.05664063,1.092773,-0.2102051,20.82443,39.03053,-26.48092,26.67059
7797,-0.1833496,1.070313,-0.355957,13.8855,26.58015,-10.44275,26.57647
7824,-0.190918,0.940918,-0.3059082,-0.1526718,0.832061,24.80153,26.62353
7848,-0.01269531,0.9567871,-0.2614746,-2.839695,4.343512,41.47328,26.52941
7784,0.07519531,0.9995117,-0.1496582,0.351145,0.02290076,64.12977,26.62353
7804,0.3237305,0.9916992,-0.1320801,2.984733,-6.839694,36.12977,26.71765
7777,0.3649902,0.8967285,-0.3098145,-6.877862,-21.83969,30.67939,26.57647
7838,0.3525391,0.9257813,-0.2695313,-10.36641,-22.65649,26.65649,26.67059
7821,0.3352051,0.9311523,-0.2075195,-13.29771,-16.00763,19.15267,26.62353
7846,0.3308105,0.9367676,-0.1223145,-9.740458,-7.412214,10.89313,26.67059
7781,0.3535156,0.9428711,-0.1142578,0.1526718,0.1603053,6.167939,26.67059
7809,0.3806152,0.9321289,-0.1428223,4.076336,-3.061069,-0.8473283,26.62353
8217,0.3356934,0.9267578,-0.2041016,4.541985,-3.343511,-5.465649,26.57647
7849,0.3032227,0.9299316,-0.2370605,3.503817,-2.717557,-7.419847,26.67059
7842,0.2678223,0.9438477,-0.2319336,0.8015267,-1.916031,-7.778626,26.4353
7814,0.251709,0.9443359,-0.2368164,1.290076,-1.122137,-7.473282,26.57647
7780,0.2331543,0.9521484,-0.2277832,-0.05343511,-1.21374,-7.167939,26.62353
7787,0.2224121,0.9558105,-0.2265625,-0.3358779,-0.7633588,-5.419847,26.62353
7844,0.2145996,0.9543457,-0.2512207,-1.587786,-1.282443,-3.091603,26.62353
7817,0.2263184,0.9545898,-0.2463379,-2.503817,0.1221374,-1.0,26.62353
7833,0.2282715,0.951416,-0.2109375,-2.725191,0.5572519,0.6259542,26.62353
7788,0.2460938,0.949707,-0.1989746,-3.70229,0.2442748,1.40458,26.67059
7753,0.2509766,0.9453125,-0.1958008,-1.343511,-0.3282443,1.740458,26.57647
7829,0.2636719,0.9467773,-0.1977539,-0.5801527,-0.5877862,1.183206,26.62353
7798,0.2700195,0.9470215,-0.2080078,-0.9847328,-0.5114504,0.4732824,26.71765
8209,0.2702637,0.9450684,-0.2229004,-1.40458,-0.5877862,-0.870229,26.62353
7862,0.6376953,0.8132324,-0.4812012,109.4962,250.1298,-46.9771,26.71765
7804,1.686523,0.5080566,-0.7548828,26.51908,4.473282,-34.12214,26.57647
7776,0.4890137,0.4084473,-1.20752,-103.0153,-1.312977,-54.79389,26.62353
7820,0.02050781,1.212402,-0.255127,-60.51908,30.53435,-40.20611,26.57647
7801,-0.1345215,0.9025879,-0.08349609,-20.98473,120.8931,-60.1832,26.67059
7787,0.1342773,1.020508,0.004882813,-5.938931,26.77863,-5.305344,26.52941
7762,0.1665039,1.075928,-0.1037598,25.62595,13.52672,39.25954,26.62353
7791,-0.08740234,0.9558105,-0.1213379,16.91603,14.07634,-7.603054,26.57647
7823,-0.0004882813,0.9755859,-0.1809082,1.641221,5.740458,8.374045,26.62353
7761,0.1120605,0.9821777,-0.1882324,9.053435,1.29771,15.33588,26.62353
7809,0.1347656,0.9382324,-0.2663574,6.603054,0.7328244,20.86259,26.67059
7746,0.2385254,0.9448242,-0.2814941,0.9083969,0.3969466,23.1145,26.67059
7789,0.3547363,0.932373,-0.2807617,-1.938931,-0.5114504,17.85496,26.71765
8168,0.3017578,0.9467773,-0.1333008,1.061069,-2.366412,6.763359,26.67059
7856,0.2961426,0.9372559,-0.2104492,5.091603,-1.580153,5.374046,26.71765
7835,0.2949219,0.9304199,-0.2219238,6.427481,0.6030535,4.519084,26.62353
7764,0.3171387,0.9311523,-0.2114258,6.091603,1.21374,5.198473,26.57647
7788,0.3081055,0.9333496,-0.1945801,5.770992,2.022901,1.183206,26.67059
16181,0.2988281,0.9438477,-0.1877441,15.93893,6.496183,-0.480916,26.57647
7857,0.2702637,0.9406738,-0.1755371,8.38168,-0.480916,-5.152672,26.57647
7801,0.2531738,0.9472656,-0.1936035,-1.358779,-1.061069,-2.236641,26.52941
7836,0.2631836,0.9501953,-0.2143555,-4.770992,-1.450382,-1.076336,26.52941
7825,0.2609863,0.9494629,-0.2158203,-6.091603,-2.450382,-1.022901,26.67059
7823,0.260498,0.9501953,-0.1999512,-4.977099,-1.366412,-1.038168,26.62353
7828,0.2546387,0.9453125,-0.1884766,-1.854962,-0.2519084,-0.4580153,26.67059
7825,0.2492676,0.9445801,-0.1882324,-3.122137,-0.3282443,0.2748091,26.62353
7757,0.2666016,0.951416,-0.1860352,-4.748092,-1.877863,1.129771,26.62353
8195,0.2670898,0.9362793,-0.2004395,-3.557252,-0.7633588,1.465649,26.62353
7882,0.2819824,0.9436035,-0.2036133,-2.167939,-0.02290076,0.7022901,26.62353
7825,0.279541,0.9472656,-0.1865234,-2.625954,-0.3969466,0.389313,26.67059
7819,0.2822266,0.9504395,-0.1782227,-6.282443,-1.137405,-0.08396947,26.67059
7807,0.2614746,0.6611328,0.04370117,79.93893,250.1298,-53.55725,26.71765
7782,0.8776855,0.3720703,-0.6135254,59.54198,127.1985,-72.09924,26.57647
7790,0.2556152,0.939209,-0.8286133,44.48855,24.99237,-62.80916,26.62353
7824,-0.2858887,1.05542,-0.3259277,2.725191,20.19084,-49.86259,26.57647
7809,-0.3659668,0.7526855,-0.6013184,-35.05344,42.25954,-7.519084,26.76471
7831,-0.01220703,1.005615,-0.1855469,-42.57252,28.75573,28.35878,26.62353
7773,0.4741211,1.123535,0.2036133,-21.51145,36.37405,-2.435115,26.71765
7793,0.234375,0.9394531,0.1352539,15.58015,36.79389,-7.503817,26.62353
7763,0.1687012,0.9594727,0.05151367,48.58779,35.59542,-3.221374,26.67059
7801,0.07568359,1.007568,-0.1220703,34.0229,28.09924,7.160306,26.67059
8176,0.2424316,0.9150391,-0.4943848,20.83206,-14.06107,17.55725,26.67059
7828,0.2175293,0.8959961,-0.5515137,13.64886,-0.2137404,11.59542,26.71765
7803,0.269043,0.8903809,-0.4719238,-4.10687,4.877862,7.358778,26.71765
7820,0.2724609,0.9714355,-0.1694336,-26.31298,3.19084,11.18321,26.62353
7788,0.2351074,0.9746094,-0.04370117,-16.26718,1.312977,12.12214,26.67059
7810,0.2678223,0.9846191,-0.004882813,2.061069,-1.267176,12.64886,26.71765
7765,0.2714844,0.9689941,-0.1118164,12.24428,-2.167939,13.0687,26.62353
7789,0.2897949,0.9394531,-0.2421875,9.396947,-1.656489,13.44275,26.67059
7804,0.286377,0.9287109,-0.3334961,-1.290076,-0.5572519,12.85496,26.57647
7762,0.2836914,0.9182129,-0.3674316,-9.732824,0.4427481,11.9542,26.71765
7806,0.2858887,0.9284668,-0.2929688,-12.48855,1.740458,10.03053,26.71765
7787,0.2858887,0.9523926,-0.1774902,-11.73282,1.832061,9.389313,26.57647
7839,0.3305664,0.935791,-0.1191406,-5.740458,-0.4427481,5.793893,26.76471
7797,0.3198242,0.9431152,-0.1240234,0.08396947,-0.778626,2.244275,26.67059
8154,0.2883301,0.9377441,-0.1955566,5.061069,-1.015267,0.1145038,26.71765
7873,0.282959,0.9436035,-0.2495117,4.450382,-0.9923664,-0.6717557,26.62353
7844,0.2873535,0.9353027,-0.2717285,1.931298,-0.389313,-1.465649,26.67059
7811,0.2697754,0.9389648,-0.2409668,-1.610687,0.2290076,-1.381679,26.62353
7816,0.2685547,0.9509277,-0.2062988,-1.534351,0.2519084,-1.251908,26.67059
7784,0.2648926,0.9487305,-0.1784668,1.0,-0.1603053,-1.053435,26.71765
7827,0.2695313,0.9470215,-0.177002,2.778626,-1.015267,-3.59542,26.67059
7818,0.2658691,0.9384766,-0.2133789,3.854962,-0.8473283,-3.137405,26.71765
7824,0.2844238,0.9421387,-0.2456055,2.549618,-0.6946565,0.129771,26.67059
7770,0.03149414,1.250488,-0.2019043,5.778626,250.1298,33.80916,26.67059
7826,0.4291992,0.7021484,-0.3537598,81.64122,250.1298,-50.00763,26.67059
7812,1.70874,0.9680176,-0.4238281,28.26718,23.75573,-55.25191,26.71765
7778,-0.2897949,0.6884766,-0.956543,1.641221,45.13741,-60.58015,26.67059
7798,-0.109375,0.9460449,-0.5734863,-19.61069,16.76336,-7.19084,26.67059
8134,0.2199707,0.973877,0.06347656,8.931297,-0.9007633,4.732824,26.71765
7882,0.1865234,0.9672852,-0.04956055,14.25954,-2.854962,8.282443,26.76471
7807,0.1987305,0.9765625,-0.2194824,22.1145,-1.389313,11.41221,26.71765
7779,0.2150879,0.932373,-0.3527832,17.48092,-1.396947,13.08397,26.71765
7782,0.2236328,0.9274902,-0.3771973,7.503817,2.389313,15.82443,26.76471
7831,0.2490234,0.9436035,-0.2927246,-4.389313,2.938931,15.77099,26.62353
7818,0.2575684,0.9160156,-0.1970215,0.519084,0.1450382,22.56489,26.67059
7788,0.2678223,0.9958496,-0.1447754,-1.061069,-0.1984733,31.86259,26.71765
7794,0.3842773,0.8552246,-0.1494141,12.96947,0.7099237,14.48092,26.76471
7741,0.3413086,0.9240723,-0.1860352,6.671756,1.053435,11.63359,26.71765
7781,0.4194336,0.9414063,-0.2631836,13.63359,0.0610687,6.48855,26.71765
7816,0.4125977,0.9055176,-0.2285156,0.5496183,-4.015267,-2.78626,26.76471
7831,0.3591309,0.8918457,-0.2333984,6.374046,-7.633588,-41.36641,26.67059
7845,0.3222656,0.9804688,-0.1831055,-11.80916,0.02290076,-15.47328,26.62353
8216,0.229248,0.9240723,-0.1943359,-9.78626,-0.2137404,-16.19847,26.76471
7889,0.2150879,0.9477539,-0.2004395,-3.694656,-2.442748,-0.7099237,26.67059
7772,0.2209473,0.9587402,-0.2126465,2.450382,-0.2366412,1.450382,26.76471
7779,0.2416992,0.9526367,-0.2163086,2.007634,0.648855,2.709924,26.67059
7759,0.2705078,0.9360352,-0.2443848,2.076336,0.6870229,3.312977,26.71765
7811,0.28125,0.9421387,-0.2199707,-3.038168,0.5343512,3.305344,26.76471
7803,0.2907715,0.9421387,-0.2060547,-7.007634,0.2519084,2.396947,26.71765
7746,0.2956543,0.940918,-0.1982422,-5.839694,0.1068702,0.7175572,26.71765
16193,0.2897949,0.9509277,-0.1853027,-1.145038,-0.9236641,-0.2519084,26.71765
7796,0.2702637,0.951416,-0.203125,0.1068702,-0.5572519,-0.480916,26.76471
7814,0.2597656,0.9394531,-0.2175293,-0.2213741,-0.4198473,-0.2366412,26.71765
7844,0.2709961,0.935791,-0.2248535,-2.931298,-0.129771,-0.5877862,26.76471
7802,0.2668457,0.9455566,-0.203125,-2.526718,-0.007633588,0.03816794,26.81176
7768,0.2668457,1.800537,-0.2529297,49.47328,250.1298,-44.77099,26.76471
8195,1.093994,1.190186,0.1877441,11.44275,164.2901,-65.8168,26.67059
7858,-0.04785156,1.410889,-0.7385254,-6.305344,90.79389,63.35115,26.71765
7831,-0.2480469,1.149414,-0.1855469,-1.122137,40.60305,-18.9771,26.81176
7813,-0.2199707,0.8823242,-0.3371582,23.16031,36.27481,-16.19084,26.76471
7804,-0.1601563,0.9926758,-0.2856445,-16.25954,-2.80916,25.58015,26.76471
7821,0.09814453,0.9443359,-0.08959961,-16.45038,11.8855,9.679389,26.71765
7804,0.2053223,1.008545,-0.01123047,0.389313,-2.496183,28.35114,26.71765
7801,0.1660156,0.9831543,-0.06958008,5.335878,-2.358779,41.70229,26.71765
7824,0.2580566,0.9187012,-0.1340332,11.94656,0.9083969,31.61069,26.76471
7784,0.3017578,0.9418945,-0.2033691,12.62595,-0.3206107,27.62595,26.71765
7807,0.3535156,0.9851074,0.01586914,26.59542,-5.877862,32.52672,26.76471
7832,0.7294922,0.8098145,-0.4682617,-0.007633588,-1.160305,0.9160305,26.81176
7801,0.5551758,0.84375,-0.425293,-8.21374,4.717557,-16.31298,26.76471
7809,0.2314453,0.7443848,-0.2424316,-13.92366,-0.4351145,-13.06107,26.81176
8183,0.2370605,0.9707031,-0.07763672,-14.64886,-3.206107,-13.55725,26.71765
7884,0.1374512,1.022949,-0.01635742,0.1526718,-1.755725,-5.335878,26.71765
7804,0.1428223,0.973877,-0.135498,6.78626,-3.19084,1.664122,26.67059
7803,0.1669922,0.9411621,-0.2312012,9.702291,-0.4198473,6.80916,26.67059
7818,0.2519531,0.934082,-0.2893066,6.48855,0.8778625,8.244275,26.81176
7774,0.3269043,0.932373,-0.3203125,4.045802,1.0,5.229008,26.62353
7821,0.3869629,0.8969727,-0.293457,-1.450382,0.6793893,-1.122137,26.81176
7773,0.3208008,0.7524414,-0.2629395,7.320611,2.015267,-17.34351,26.71765
7796,0.3193359,0.9926758,-0.1665039,-0.06870229,-1.633588,-18.26718,26.76471
7836,0.2297363,0.9711914,-0.1491699,6.198473,-1.160305,-5.862596,26.71765
7773,0.2099609,0.9663086,-0.1826172,-2.267176,-2.847328,0.3435115,26.76471
7836,0.2102051,0.9436035,-0.2629395,1.717557,-0.9389313,3.145038,26.71765
7807,0.2565918,0.9367676,-0.2653809,1.916031,0.6793893,3.679389,26.76471
7844,0.3046875,0.940918,-0.2380371,-2.633588,0.961832,1.778626,26.76471
8228,0.2358398,0.9543457,-0.2145996,-0.5419847,-0.8854962,0.480916,26.71765
7826,0.7260742,0.8129883,-0.751709,40.21374,250.1298,-33.74046,26.85882
7814,1.093506,0.7387695,-0.421875,-47.82443,16.32061,-50.03817,26.76471
7823,0.1318359,0.9645996,-0.4609375,-1.114504,36.9542,-53.38168,26.71765
7836,-0.1975098,1.138428,-0.04638672,-6.40458,0.6183206,-2.40458,26.85882
7771,-0.2976074,0.809082,-0.08105469,19.33588,101.0076,250.1298,26.71765
7788,0.2163086,0.9379883,-0.02587891,-2.641221,7.885496,54.41985,26.76471
7812,0.4753418,0.9685059,0.01342773,-8.511451,32.96183,42.10687,26.71765
7770,0.08325195,0.9260254,0.05151367,58.87786,-4.045802,49.90076,26.81176
7787,0.1589355,0.9677734,-0.331543,23.8855,0.1068702,48.83206,26.71765
7747,0.4135742,0.8718262,-0.3410645,28.64122,17.31298,24.54962,26.71765
7820,0.5473633,0.8466797,-0.347168,-21.16794,-1.748092,11.48855,26.90588
7850,0.5817871,0.8967285,-0.2150879,-41.62595,-3.961832,-13.91603,26.71765
8184,0.3979492,0.9748535,-0.07250977,-8.969465,-3.587786,-14.87023,26.67059
7856,0.2060547,0.979248,-0.01489258,-17.43511,-3.358779,-13.87786,26.81176
7794,0.1311035,0.9787598,-0.1306152,9.015267,1.030534,-4.053435,26.81176
7809,0.09326172,0.9772949,-0.1774902,2.442748,-3.992366,4.305344,26.71765
7741,0.1940918,0.9589844,-0.2358398,4.801527,1.183206,7.80916,26.85882
7775,0.3134766,0.925293,-0.2734375,6.923664,2.48855,5.114504,26.76471
7828,0.3664551,0.9331055,-0.2487793,-2.549618,0.02290076,0.1526718,26.81176
7782,0.3271484,0.9411621,-0.1911621,-3.29771,0.7480916,-4.748092,26.76471
7821,0.2727051,0.954834,-0.0715332,-20.79389,-1.519084,-6.91603,26.81176
7833,0.251709,0.9746094,-0.1530762,-0.4427481,-5.709924,-2.992366,26.76471
7864,0.2333984,0.9724121,-0.1679688,1.458015,-3.068702,-3.435115,26.81176
7797,0.2316895,0.9414063,-0.2104492,-4.885496,0.02290076,-1.343511,26.76471
7815,0.2629395,0.9335938,-0.2338867,0.3740458,-0.7480916,0.1526718,26.76471
7790,0.2885742,0.9501953,-0.1943359,-1.374046,0.1374046,-2.832061,26.71765
8201,0.284668,0.947998,-0.1604004,-6.870229,-2.564885,-6.679389,26.81176
7857,0.2365723,0.9470215,-0.1782227,-3.259542,-2.114504,-2.358779,26.81176
7814,0.2148438,0.9597168,-0.1730957,1.679389,-0.5343512,0.0610687,26.76471
7814,0.2451172,0.9509277,-0.1940918,-1.152672,-0.7480916,0.7557252,26.81176
7799,0.2687988,0.940918,-0.2094727,-0.6183206,-0.5954198,0.1908397,26.85882
7825,0.269043,0.9553223,-0.2038574,-0.389313,-0.04580153,-0.389313,26.95294
7776,0.2512207,0.9567871,-0.1838379,2.0,0.007633588,-0.4885496,26.67059
7775,0.2470703,0.9526367,-0.177002,-1.870229,-1.083969,0.1221374,26.81176
7812,0.2446289,0.9506836,-0.1899414,-3.320611,-1.015267,0.6946565,26.85882
7822,0.3718262,0.7861328,-0.4580078,99.09161,250.1298,-61.45802,26.76471
7799,0.9919434,0.5888672,-1.404297,1.580153,27.0229,-56.89313,26.76471
7815,-0.1220703,1.090088,-0.4567871,-15.77099,45.72519,-42.54198,26.76471
7839,-0.1418457,1.026611,-0.01318359,-18.16031,71.16031,100.4962,26.81176
7745,0.276123,0.8654785,0.2128906,-11.9313,31.32825,117.0305,26.71765
8151,0.2902832,0.9428711,0.1530762,14.74046,5.160306,28.69466,26.81176
7801,0.439209,0.9008789,-0.0769043,19.9313,-2.167939,18.84733,26.81176
7825,0.2988281,0.947998,-0.1750488,25.9084,0.1832061,32.36641,26.81176
7810,0.2958984,0.8508301,-0.5227051,13.66412,7.557252,43.45038,26.85882
7770,0.2770996,0.9831543,-0.5183105,0.3740458,17.48855,14.83206,26.71765
7811,0.3037109,1.060547,-0.2902832,-8.419847,31.06107,58.85496,26.71765
7834,0.3056641,0.934082,-0.1711426,-15.1374,3.10687,3.625954,26.85882
7813,0.314209,0.9511719,-0.02734375,-6.900764,0.519084,1.908397,26.81176
7818,0.302002,0.9619141,-0.01269531,2.061069,-0.6793893,0.4122138,26.85882
7785,0.2922363,0.9438477,-0.09057617,8.610687,-2.839695,1.396947,26.85882
7782,0.2783203,0.9599609,-0.2294922,8.396947,-1.007634,2.045802,26.81176
7798,0.2922363,0.923584,-0.2854004,1.618321,-2.19084,1.885496,26.76471
7782,0.3076172,0.9294434,-0.2875977,-2.465649,0.1450382,1.427481,26.81176
7835,0.3239746,0.9443359,-0.2019043,-7.091603,0.7328244,-3.007634,26.81176
8165,0.2692871,0.947998,-0.1804199,2.732824,-1.839695,-5.442748,26.81176
7843,0.2783203,0.9335938,-0.1799316,-1.59542,-9.137404,-5.38168,26.81176
7838,0.7045898,0.8383789,-0.2966309,87.64886,250.1298,-29.9084,26.76471
7784,1.047607,0.6875,-0.307373,7.38168,12.25191,-44.0229,26.95294
7857,-0.046875,1.144287,-0.1672363,-13.53435,7.480916,-69.58778,26.90588
7780,-0.4262695,0.987793,-0.2819824,-15.31298,40.98473,18.61832,26.85882
7777,0.001220703,0.8325195,-0.06079102,-3.122137,29.78626,40.38931,26.90588
7797,0.2758789,1.00415,0.05932617,-5.900764,-2.480916,43.77863,26.85882
7764,0.3193359,0.9467773,0.01806641,4.427481,1.778626,31.08397,26.95294
7818,0.4445801,0.8867188,-0.109375,11.66412,-2.916031,16.14504,26.81176
7774,0.4067383,0.9284668,-0.1845703,14.92366,-2.977099,10.0,26.81176
7760,0.3852539,0.9189453,-0.263916,12.15267,-2.068702,3.748092,26.81176
7821,0.3728027,0.9089355,-0.3232422,3.450382,-0.6717557,-1.625954,26.76471
7808,0.3388672,0.920166,-0.2897949,-4.801527,1.091603,-3.770992,26.90588
8180,0.2749023,0.9396973,-0.1933594,-8.679389,0.648855,-2.549618,26.85882
7837,0.2646484,0.9462891,-0.1184082,-4.984733,0.8015267,0.01526718,26.76471
7813,0.2658691,0.970459,-0.0715332,-2.419847,-0.4427481,1.564886,26.81176
7793,0.2988281,0.9523926,-0.09814453,1.78626,-1.328244,1.717557,26.85882
7805,0.3122559,0.9204102,-0.1711426,3.206107,-1.343511,0.7328244,26.90588
7757,0.317627,0.9348145,-0.2194824,2.564885,-0.9007633,-0.8931297,26.90588
7818,0.3044434,0.934082,-0.2346191,-0.1984733,-0.5725191,-1.358779,26.90588
7840,0.2875977,0.9418945,-0.2084961,-3.099237,0.5114504,-1.083969,26.85882
7774,0.2770996,0.9448242,-0.1716309,-2.763359,0.3206107,0.1908397,26.90588
7801,0.2832031,0.9438477,-0.144043,-2.007634,-0.6946565,1.076336,26.95294
7780,0.3012695,0.9370117,-0.1542969,0.3282443,-0.351145,0.7557252,26.85882
7800,0.3110352,0.9365234,-0.1572266,1.473282,-1.10687,-0.1755725,26.90588
7831,0.3105469,0.9431152,-0.1884766,-0.1832061,-1.229008,-0.961832,26.81176
7830,0.295166,0.9313965,-0.2060547,-1.160305,-0.3358779,-1.534351,26.85882
8178,0.2834473,0.9460449,-0.1955566,-1.977099,0.8473283,-1.198473,26.81176
7834,0.2744141,0.9375,-0.1689453,-2.053435,0.1145038,-0.2748091,26.90588
7778,0.2910156,0.9448242,-0.151123,-0.8473283,-0.5419847,0.5801527,26.90588
7785,0.3037109,0.9494629,-0.1533203,0.9923664,-0.4503817,0.3129771,26.85882
7812,0.3039551,0.9467773,-0.1691895,0.1908397,-0.4427481,-0.4427481,26.81176
7820,0.3007813,0.935791,-0.192627,-0.870229,-0.7175572,-0.4274809,26.85882
7812,0.2895508,0.9365234,-0.171875,-0.7557252,-0.3587786,-0.2213741,26.81176
7810,0.2963867,0.9509277,-0.1743164,-0.5572519,-0.9465649,0.7633588,26.85882
7821,0.2939453,0.9448242,-0.1748047,-0.4198473,-0.7709923,0.519084,26.90588
7795,0.3010254,0.9375,-0.1762695,-0.3740458,-0.5954198,0.351145,26.85882
7803,0.3010254,0.9375,-0.189209,-0.6564885,-0.4198473,0.2442748,26.81176
7812,0.3029785,0.9384766,-0.1843262,-0.5725191,-0.1832061,-0.05343511,26.85882
7760,0.0793457,0.5942383,-0.4260254,92.229,250.1298,5.175572,26.85882
7817,1.999939,0.640625,-0.2929688,20.13741,-7.358778,-73.58015,26.81176
8192,0.06665039,1.30835,-0.126709,5.923664,16.1145,-66.08397,26.81176
7872,0.02587891,0.9230957,-0.1813965,5.526718,45.61832,-34.13741,26.81176
7822,0.2407227,0.8215332,-0.2263184,4.312977,15.28244,-69.12214,26.76471
7875,-0.1298828,1.105957,-0.236084,-6.068702,-15.66412,-23.01527,26.90588
7806,-0.324707,1.089111,-0.2270508,-8.236641,0.8396947,18.54198,26.85882
7788,0.04272461,0.9968262,-0.1135254,-5.358778,4.633588,30.60305,26.81176
7835,0.2060547,0.9462891,-0.109375,-1.320611,4.625954,39.73283,26.85882
7779,0.3735352,0.8974609,-0.1464844,8.038168,5.961832,42.51145,26.95294
7805,0.4941406,0.9040527,-0.1491699,8.175572,1.221374,26.27481,26.90588
7812,0.4797363,0.9272461,-0.2419434,4.068702,-4.740458,4.519084,26.90588
7839,0.3466797,0.9067383,-0.2797852,0.1603053,0.4427481,1.824428,26.81176
7783,0.3654785,0.9130859,-0.2243652,-4.778626,0.08396947,-1.938931,26.76471
7795,0.3625488,0.9355469,-0.1499023,-1.954198,-0.4732824,-6.038168,26.90588
7838,0.310791,0.9396973,-0.1464844,-0.9694656,-1.587786,-6.732824,26.85882
16623,0.2753906,0.951416,-0.2033691,-0.2213741,-1.358779,-4.038168,26.85882
7852,0.1994629,0.9506836,-0.1894531,-2.70229,0.9007633,3.229008,26.85882
7836,0.2661133,0.9465332,-0.1750488,-2.038168,0.3129771,3.900763,26.90588
7850,0.2961426,0.9470215,-0.1726074,-0.6335878,-0.3129771,3.091603,26.95294
7780,0.3112793,0.940918,-0.1860352,0.08396947,-0.07633588,1.709924,26.90588
7810,0.3112793,0.9370117,-0.1855469,-0.7557252,-0.1526718,0.1679389,26.90588
7821,0.307373,0.9458008,-0.1899414,-1.282443,-0.2748091,-0.519084,26.76471
7859,0.2963867,0.9384766,-0.1838379,-0.9770992,-0.6259542,-0.870229,26.90588
7805,0.2902832,0.9467773,-0.1713867,-0.4961832,-0.8549618,-1.160305,26.90588
7828,0.2780762,0.9477539,-0.1784668,-0.2290076,-0.6870229,-0.6030535,26.85882
7808,0.2702637,0.9438477,-0.1953125,-0.4045802,-0.519084,0.1832061,26.90588
7796,0.2788086,0.9414063,-0.2050781,-1.10687,-0.1755725,0.6717557,26.90588
7798,0.2849121,0.9477539,-0.1826172,-1.267176,-0.3816794,1.015267,26.85882
8196,0.2915039,0.942627,-0.1762695,-0.8473283,-0.5114504,0.8625955,26.90588
7870,0.2954102,0.9450684,-0.1835938,-0.648855,-0.3969466,0.2748091,26.81176
7794,0.2885742,0.9399414,-0.1804199,0.1755725,-0.6870229,-0.1374046,26.85882
7827,0.2907715,0.9414063,-0.1894531,-0.01526718,-0.9236641,-0.4885496,26.85882
7812,0.2871094,0.9458008,-0.1809082,-0.1679389,-0.8015267,-0.5877862,26.90588
7834,0.2788086,0.9379883,-0.1921387,-0.870229,-0.5496183,-0.2137404,26.90588
7820,0.5029297,1.026611,-0.3432617,110.2595,250.1298,-17.9313,26.85882
7811,0.6166992,1.156738,0.06958008,103.771,250.1298,-35.67939,26.90588
7798,1.282959,0.8120117,-0.4416504,12.23664,1.358779,-48.06107,26.95294
7798,0.1201172,0.8840332,-0.6767578,-0.5419847,27.61832,-63.21374,26.90588
7799,0.05224609,0.9030762,-0.3974609,-5.725191,47.42748,-30.62595,26.90588
7818,0.2397461,0.9711914,-0.2321777,-21.20611,18.0458,-32.61069,27.0
7847,0.1013184,0.9899902,-0.08813477,-20.35114,-1.175573,-18.43511,26.90588
7829,0.1643066,0.9753418,0.02001953,-11.85496,-1.580153,-9.748092,26.95294
8177,0.284668,0.8684082,-0.06103516,-3.709924,-7.541985,-25.24427,26.90588
7844,-0.004638672,0.994873,-0.1381836,8.312977,-4.839694,-9.175572,27.0
7763,0.02441406,0.9611816,-0.182373,11.39695,1.259542,15.58779,26.85882
7801,0.2612305,0.9587402,-0.2473145,8.572519,-1.068702,13.8855,26.90588
7798,0.2978516,0.9353027,-0.2910156,2.572519,1.89313,12.76336,26.95294
7776,0.3398438,0.921875,-0.2797852,-3.19084,-0.2824428,8.305344,26.90588
7822,0.3186035,0.9328613,-0.2045898,-5.038168,-1.0,5.541985,26.90588
7842,0.2890625,0.9423828,-0.1540527,-3.038168,-0.2900764,5.763359,26.90588
7848,0.3327637,0.9575195,-0.1237793,-2.648855,-3.435115,5.793893,26.85882
7781,0.3620605,0.953125,-0.1594238,6.48855,0.9465649,2.015267,27.0
7791,0.3288574,0.9433594,-0.1945801,-0.09160305,-1.274809,-0.2213741,27.0
7834,0.314209,0.9289551,-0.2341309,-0.832061,-1.038168,-1.916031,26.90588
7847,0.2849121,0.9345703,-0.2026367,-3.129771,-1.458015,-3.267176,26.95294
7789,0.2839355,0.949707,-0.1750488,-2.824427,-1.832061,-3.21374,26.90588
8211,0.2722168,0.9494629,-0.182373,1.557252,-1.312977,-1.160305,26.85882
7854,0.2490234,0.9719238,-0.140625,-0.9541985,-1.122137,-0.007633588,26.90588
7794,0.2595215,0.9550781,-0.208252,-1.435114,-0.1679389,1.328244,26.85882
7805,0.2714844,0.9414063,-0.1982422,-1.328244,0.129771,1.480916,26.90588
7837,0.2768555,0.9418945,-0.1921387,-0.9923664,-0.1603053,1.923664,26.85882
7833,0.2932129,0.9462891,-0.2004395,-0.519084,-0.3282443,1.671756,26.90588
7759,0.3027344,0.9436035,-0.1960449,0.3206107,-0.4122138,0.5114504,27.04706
7835,0.295166,0.9440918,-0.1938477,-0.4580153,-0.3664122,-0.1908397,26.90588
7810,0.2888184,0.9355469,-0.2084961,-2.328244,-0.129771,-0.2977099,27.0
7801,0.2841797,0.9404297,-0.2001953,-1.526718,-0.4122138,-0.8091603,26.90588
7841,0.2768555,0.9423828,-0.1962891,-0.8396947,-0.6641222,-0.4961832,26.95294
7771,0.2661133,0.956543,-0.1828613,0.129771,-0.5877862,0.5648855,27.0
7798,0.2770996,0.9450684,-0.189209,-0.9160305,-0.4961832,0.8778625,26.95294
7830,0.2814941,0.9350586,-0.2145996,-0.648855,-0.610687,0.8244275,26.90588
8037,0.1137695,0.9228516,-0.08276367,25.32061,250.1298,44.61832,26.90588
7853,1.999939,0.5615234,-0.5366211,-38.62595,-2.145038,-64.8855,27.04706
7815,0.07373047,0.9050293,-0.6450195,-32.93893,4.396946,11.0,26.85882
7841,-0.4655762,1.003662,-0.5402832,-26.29771,40.74809,-0.1755725,26.90588
7781,0.0246582,0.8747559,-0.239502,-29.36641,48.91603,18.66412,26.90588
7774,0.2543945,0.9499512,0.03759766,-18.0229,4.412214,31.0229,26.85882
7789,0.3215332,1.000732,0.08447266,-6.70229,-3.923664,25.87786,26.90588
7804,0.4160156,0.9213867,-0.04638672,2.839695,6.244275,0.01526718,27.0
7780,0.338623,0.8945313,-0.1489258,5.877862,5.503817,-18.73282,26.95294
7766,0.3198242,0.9648438,-0.1088867,14.52672,1.305344,-2.778626,26.95294
7792,0.2714844,0.9382324,-0.2211914,15.41985,-0.2900764,0.5725191,26.90588
7789,0.2307129,0.9511719,-0.3024902,9.160305,-1.900763,4.519084,26.90588
7785,0.2255859,0.9311523,-0.3491211,2.290076,-0.2366412,7.969466,26.95294
8178,0.2956543,0.9147949,-0.267334,-5.664122,1.396947,8.519084,27.0
7884,0.3459473,0.9272461,-0.2128906,-6.984733,0.259542,5.61832,26.90588
7856,0.3771973,0.9238281,-0.1835938,-5.641222,-1.358779,0.9312977,26.90588
7811,0.3859863,0.9260254,-0.1855469,-1.068702,-1.664122,-4.725191,26.85882
7804,0.3203125,0.9387207,-0.1955566,-0.5877862,-1.961832,-7.038168,26.90588
16191,0.263916,0.9418945,-0.2331543,-2.541985,-2.160305,-3.977099,27.0
7839,0.223877,0.9621582,-0.2194824,-1.572519,-0.7862596,-0.2213741,26.90588
7819,0.2436523,0.9482422,-0.1914063,-2.78626,-0.6412213,1.236641,26.90588
7811,0.2895508,0.9458008,-0.1738281,-0.1526718,-0.9389313,1.648855,26.90588
7803,0.3105469,0.9355469,-0.1906738,0.6183206,-1.458015,0.7480916,26.85882
7796,0.3012695,0.9362793,-0.1953125,2.450382,-1.664122,-0.3282443,26.90588
7794,0.3046875,0.9350586,-0.2304688,0.06870229,-1.969466,-0.5954198,26.95294
7799,0.2753906,0.9448242,-0.236084,-0.6183206,-0.961832,0.648855,27.0
7809,0.2744141,0.927002,-0.2248535,-1.755725,0.2137404,1.312977,26.95294
8199,0.2858887,0.9370117,-0.1887207,-1.534351,-0.778626,0.4045802,26.85882
7890,0.2890625,0.9428711,-0.1794434,-1.114504,-0.09160305,-0.1679389,26.90588
7822,0.2924805,0.9401855,-0.2016602,0.4427481,-0.2977099,0.05343511,26.95294
7783,0.2839355,0.9367676,-0.234375,0.4351145,-0.2824428,0.519084,27.0
7832,0.2780762,0.9387207,-0.2365723,-1.435114,-0.389313,0.9923664,26.95294
7777,0.284668,0.9436035,-0.2165527,-1.770992,0.3969466,1.137405,26.90588
7822,0.2924805,0.9433594,-0.1999512,-0.8396947,0.2977099,0.2290076,26.95294
7804,0.3012695,0.9375,-0.1984863,-0.4274809,-0.3053435,-0.05343511,26.90588
7797,0.2956543,0.9423828,-0.2070313,0.4656488,-0.4122138,-0.389313,26.95294
7817,0.2895508,0.9440918,-0.2255859,-0.832061,-0.3206107,-0.2061069,26.85882
7785,0.2805176,0.9418945,-0.2231445,-0.9694656,-0.4045802,0.5877862,26.90588
7824,0.2875977,0.9321289,-0.2207031,-1.496183,-0.09160305,0.8167939,26.85882
7866,0.2956543,0.9482422,-0.2165527,-0.8244275,0.07633588,0.2061069,26.90588
7800,0.2993164,0.9384766,-0.206543,0.03816794,-0.6870229,0.129771,26.95294
8176,0.2919922,0.9362793,-0.2119141,-0.9847328,-0.05343511,-0.3587786,26.95294
7797,0.2807617,0.9304199,-0.2131348,-1.412214,0.1450382,-0.3358779,26.90588
7832,0.2861328,0.9382324,-0.2167969,-0.5114504,-0.2061069,0.1221374,27.0
7766,0.2927246,0.9431152,-0.1987305,-1.229008,-0.7862596,0.07633588,27.0
7833,0.2983398,0.942627,-0.2055664,-0.6793893,-1.045802,-0.04580153,27.04706
7812,0.2919922,0.9401855,-0.2087402,-0.2137404,-0.6183206,-0.01526718,26.90588
7814,0.295166,0.9396973,-0.2236328,-0.1450382,-0.8244275,-0.4122138,27.0
7828,0.2915039,0.9438477,-0.2194824,-1.312977,-0.6641222,-0.3587786,26.95294
7800,0.2841797,0.9414063,-0.2092285,-0.8625955,-0.778626,-0.4274809,26.90588
7823,0.2851563,0.942627,-0.2060547,-0.8854962,-0.6793893,-0.007633588,26.85882
7830,0.2849121,0.9414063,-0.2060547,-0.648855,-0.6335878,-0.1374046,26.95294
7804,0.2861328,0.9450684,-0.1970215,-0.129771,-1.083969,0.1603053,27.0
7807,0.2939453,0.939209,-0.2143555,-0.5267176,-0.9847328,0.07633588,26.95294
8061,0.7033691,0.9782715,-0.02587891,117.3511,250.1298,-97.71756,27.04706
7866,1.466309,0.8063965,-0.2963867,-2.40458,14.31298,-40.03053,27.04706
7824,-0.1467285,0.753418,-0.7949219,26.90076,32.61069,-2.022901,27.04706
7820,-0.08691406,0.9604492,-0.6533203,2.114504,75.94656,29.01527,26.90588
7807,-0.0378418,1.051758,-0.3085938,-20.37405,48.91603,14.48855,26.90588
7831,0.1831055,0.9194336,-0.2265625,-19.66412,37.99237,9.358779,26.90588
7772,0.206543,0.9536133,-0.04882813,-9.412213,14.53435,9.931297,27.04706
7843,0.3574219,0.9873047,-0.05200195,-4.290076,-2.129771,8.396947,27.0
7805,0.3237305,0.9545898,-0.1193848,0.5267176,-1.877863,2.450382,27.0
7801,0.3256836,0.9216309,-0.137207,0.5343512,-2.564885,-1.091603,26.85882
7812,0.2802734,0.9667969,-0.1379395,5.969466,-3.717557,-2.78626,26.90588
7789,0.2590332,0.9575195,-0.1838379,8.083969,-4.022901,-3.465649,27.04706
7788,0.2666016,0.9448242,-0.2565918,6.923664,-3.320611,-4.267176,27.0
7803,0.2260742,0.9318848,-0.2912598,3.10687,-0.8015267,-3.099237,26.90588
8171,0.1987305,0.9521484,-0.296875,-3.870229,0.1068702,-0.03816794,26.95294
7847,0.21875,0.9562988,-0.2539063,-6.274809,1.305344,2.145038,27.04706
7814,0.2578125,0.9465332,-0.1860352,-6.229008,0.5954198,2.022901,26.90588
7813,0.2675781,0.9528809,-0.152832,-2.679389,0.4427481,0.351145,26.90588
7809,0.2807617,0.9450684,-0.1520996,-1.557252,-1.664122,-1.305344,27.0
7810,0.2675781,0.953125,-0.173584,2.587786,-2.427481,-2.167939,26.90588
7819,0.2470703,0.9765625,-0.1826172,5.122138,-1.877863,-2.274809,27.04706
7775,0.2324219,0.9506836,-0.2353516,0.4885496,-1.458015,-1.541985,26.90588
7828,0.2216797,0.9465332,-0.2575684,-0.4732824,-0.832061,-0.4045802,27.04706
7823,0.2338867,0.947998,-0.2299805,-1.755725,-0.9160305,0.6030535,26.90588
7785,0.2543945,0.9545898,-0.1984863,-1.320611,-0.1450382,1.221374,27.0
7818,0.2502441,0.9611816,-0.1938477,-2.412214,0.05343511,-0.1679389,27.04706
7791,0.2529297,0.9538574,-0.1760254,0.05343511,-0.1221374,-0.4045802,26.85882
7797,0.2502441,0.949707,-0.1831055,0.1832061,-0.6793893,-0.6946565,26.90588
8189,0.237793,0.9543457,-0.2116699,0.9007633,-0.9847328,0.08396947,26.95294
7863,0.2436523,0.9560547,-0.2331543,0.648855,-0.2900764,0.6183206,26.95294
7852,0.246582,0.947998,-0.2180176,-0.9694656,-0.4732824,0.2824428,26.95294
7780,0.2463379,0.9521484,-0.2180176,-1.381679,-0.351145,-0.09160305,27.0
7823,0.2385254,0.9543457,-0.1853027,-0.3435115,-0.03053435,0.1679389,26.95294
7801,0.2529297,0.9492188,-0.2062988,0.3435115,-0.4656488,0.2290076,27.09412
7806,0.2507324,0.9577637,-0.2099609,0.1526718,-0.9312977,-0.1450382,26.95294
7793,0.2531738,0.949707,-0.2099609,-0.01526718,-0.5038168,0.07633588,27.0
7817,0.251709,0.9501953,-0.222168,-1.152672,-0.4198473,0.1450382,27.0
7813,0.2407227,0.9499512,-0.2016602,-1.282443,-0.1145038,0.1145038,27.0
7774,0.2473145,0.9467773,-0.2114258,-0.8931297,0.2366412,0.1984733,26.90588
7801,0.2473145,0.9521484,-0.1989746,-1.030534,-0.1755725,0.5725191,26.95294
7780,0.2490234,0.951416,-0.2075195,-0.3587786,-0.03816794,0.4045802,27.0
7810,0.2470703,0.9450684,-0.2124023,-0.4961832,-0.4198473,0.2290076,27.04706
8179,0.2553711,0.9431152,-0.208252,-0.4656488,-0.6641222,0.03816794,26.95294
7879,0.2512207,0.9489746,-0.208252,-0.7251908,-0.5572519,-0.3129771,26.95294
7810,0.2258301,0.8920898,-0.5366211,122.8015,250.1298,-36.34351,26.90588
7762,0.7702637,0.9418945,-0.2265625,89.79389,238.4504,-44.48855,26.85882
7816,0.2595215,1.03833,-0.1486816,-30.45802,71.98473,-65.87023,26.95294
7803,-0.1367188,1.067871,-0.4020996,9.648855,78.41222,-50.82443,26.90588
7802,-0.1818848,0.9562988,-0.3937988,8.969465,85.38168,-13.43511,27.09412
7814,-0.1352539,1.053223,-0.1474609,-4.709924,83.25954,9.274809,27.0
7791,0.0324707,0.9296875,-0.06079102,-9.877863,43.17557,35.16031,27.0
7791,0.197998,0.9880371,-0.1188965,10.8855,15.22901,28.53435,26.95294
7790,0.2290039,1.027588,-0.02856445,11.26718,-1.030534,22.17557,27.09412
7819,0.2353516,0.9416504,-0.184082,7.61832,-2.793893,16.1145,27.0
7807,0.3127441,0.9299316,-0.3112793,9.068703,-1.969466,12.45038,27.0
7804,0.340332,0.8986816,-0.3400879,-0.09160305,0.03053435,3.167939,26.95294
8146,0.1801758,0.9699707,-0.1279297,-1.816794,-1.129771,-4.328244,26.95294
7879,0.1699219,0.9611816,-0.1442871,2.10687,-0.8396947,-1.244275,26.95294
7831,0.1791992,0.972168,-0.1914063,5.015267,-0.9770992,0.259542,26.95294
7804,0.2001953,0.9599609,-0.2460938,2.671756,-2.007634,0.8244275,27.0
7783,0.1962891,0.9519043,-0.2709961,-0.4885496,0.6412213,-0.09160305,27.0
7821,0.2341309,0.9489746,-0.2502441,-3.274809,0.259542,-0.3358779,27.04706
7810,0.2102051,0.973877,-0.1835938,-5.145038,-0.6946565,-0.7099237,27.09412
7873,0.1953125,0.9631348,-0.166748,-2.129771,-0.07633588,-0.2671756,27.0
7821,0.1992188,0.9628906,-0.1640625,0.7175572,-0.389313,-0.07633588,26.90588
7798,0.2189941,0.9558105,-0.1765137,1.954198,-1.381679,-0.3740458,27.0
7828,0.2060547,0.9577637,-0.201416,1.89313,-1.007634,-0.9465649,27.0
7848,0.2124023,0.9594727,-0.2434082,0.9541985,-0.9236641,-1.473282,27.04706
7811,0.1984863,0.9428711,-0.2436523,-2.320611,0.8854962,-0.7862596,27.09412
7835,0.1948242,0.9624023,-0.213623,-1.48855,0.4427481,-0.7709923,27.04706
8190,0.197998,0.9658203,-0.1787109,-2.030534,0.3435115,-0.129771,27.0
7827,0.2006836,0.9660645,-0.177002,-0.4427481,-0.778626,0.2137404,26.95294
7819,0.2026367,0.9719238,-0.166748,-0.5419847,-0.8015267,0.3435115,27.0
7818,0.1994629,0.965332,-0.171875,0.2519084,0.07633588,-0.4045802,26.95294
7803,0.2045898,0.9606934,-0.2089844,0.07633588,-0.778626,-0.2061069,27.0
7817,0.2009277,0.953125,-0.2158203,-1.374046,-0.2137404,-0.1603053,27.04706
7786,0.1999512,0.965332,-0.2070313,-1.519084,-0.2748091,0.0610687,26.95294
7801,0.1933594,0.9624023,-0.1970215,-1.167939,-0.3358779,0.1832061,27.0
7843,0.199707,0.9643555,-0.1833496,-0.7938931,-0.3816794,0.3129771,27.04706
7836,0.2133789,0.9641113,-0.1904297,-0.2900764,-0.4732824,0.3435115,27.0
7843,0.206543,0.9597168,-0.2009277,-0.2442748,-0.3129771,0.1145038,27.0
7821,0.2084961,0.9604492,-0.2070313,-0.2824428,-0.3969466,0.2290076,26.95294
7788,0.2033691,0.9609375,-0.2045898,-0.9312977,-0.2061069,0.1450382,27.0
7821,0.201416,0.9577637,-0.2045898,-1.442748,-0.4122138,-0.1603053,27.0
8163,0.2116699,0.9577637,-0.199707,-1.099237,-0.4503817,0.3435115,27.04706
7882,0.2092285,0.9619141,-0.1958008,-0.02290076,-0.5572519,0.0,27.04706
7877,0.2084961,0.9560547,-0.201416,-0.3358779,-0.5648855,-0.2442748,27.09412
7811,0.2016602,0.9570313,-0.2001953,-0.778626,-0.4503817,0.007633588,27.04706
7828,0.2004395,0.958252,-0.2075195,-0.648855,-0.4656488,0.07633588,26.90588
7806,0.2033691,0.956543,-0.2019043,-0.9312977,-0.3206107,-0.09923664,27.0
7813,0.2080078,0.9624023,-0.1948242,-1.015267,-0.740458,0.1068702,27.09412
7844,0.2055664,0.9604492,-0.1906738,-0.6335878,-0.5038168,-0.2366412,27.04706
7842,0.2109375,0.9641113,-0.1958008,-0.3587786,-0.610687,-0.3435115,27.0
7841,0.2109375,0.953125,-0.1999512,-0.5572519,-0.6641222,-0.648855,27.0
7845,0.2067871,0.9609375,-0.2111816,-0.5419847,-0.6335878,-0.2519084,27.04706
7828,0.2001953,0.9621582,-0.2067871,-1.061069,-0.5954198,-0.1450382,27.04706
7823,0.2016602,0.9594727,-0.1960449,-1.030534,-0.8091603,-0.1145038,27.04706
8176,0.2053223,0.963623,-0.1943359,-0.6870229,-0.4656488,0.007633588,27.0
7882,0.213623,0.9614258,-0.1999512,-0.7099237,-0.6793893,-0.09160305,27.0
7837,0.2109375,0.9570313,-0.2004395,-0.7557252,-0.610687,-0.2366412,26.95294
7827,0.2111816,0.9611816,-0.1999512,-0.6335878,-0.6030535,-0.5114504,27.0
7838,0.204834,0.9577637,-0.197998,-0.9083969,-0.5572519,-0.2213741,26.95294
7805,0.1970215,0.9619141,-0.2070313,-0.5343512,-0.519084,-0.129771,27.0
7832,0.2009277,0.963623,-0.1989746,-0.5572519,-0.7022901,0.03816794,27.0
7792,0.2036133,0.9575195,-0.2023926,-0.8854962,-0.648855,0.259542,27.04706
7795,0.2104492,0.9602051,-0.1967773,-0.5496183,-0.5572519,-0.03816794,27.0
7807,0.206543,0.9602051,-0.1987305,-0.4656488,-0.4351145,-0.2519084,27.04706
7800,0.2104492,0.9592285,-0.189209,-0.3358779,-0.6335878,0.04580153,27.0
7846,0.204834,0.9604492,-0.1970215,-0.2671756,-0.7099237,-0.2366412,26.95294
16236,0.2050781,0.9633789,-0.2009277,-0.8167939,-0.1679389,0.07633588,27.09412
7847,0.206543,0.9628906,-0.2121582,-0.6793893,-0.9007633,-0.2061069,27.0
8236,0.2114258,0.9614258,-0.1984863,-0.259542,-0.8167939,-0.2519084,27.09412
7864,0.2126465,0.9587402,-0.201416,-0.389313,-0.5343512,-0.3129771,27.0
7836,0.2019043,0.9616699,-0.2058105,-0.1908397,-0.1984733,-0.4045802,26.95294
7828,0.2099609,0.9589844,-0.1894531,-1.122137,-0.3664122,-0.3358779,27.0
7828,0.2011719,0.9604492,-0.2062988,-0.3587786,-0.6259542,0.0,27.04706
7843,0.2055664,0.9575195,-0.1940918,-0.4732824,-0.4732824,0.05343511,27.09412
7829,0.1992188,0.9641113,-0.2070313,-0.5648855,-0.519084,0.259542,27.04706
7844,0.2021484,0.9665527,-0.2028809,-0.2671756,-0.7022901,-0.007633588,27.0
7819,0.2978516,1.035156,0.04980469,121.6718,250.1298,-41.32824,27.0
7779,0.9594727,0.4577637,-0.409668,25.9542,0.9847328,-71.78626,27.04706
7778,-0.1843262,0.7785645,-0.9602051,33.08397,53.62595,-64.67175,27.04706
7799,-0.2375488,1.086182,-0.2431641,21.17557,101.1756,-32.49618,27.0
7805,-0.1831055,0.9453125,-0.3647461,1.78626,117.6336,-7.984733,27.09412
7810,-0.04882813,0.8967285,-0.2697754,5.21374,55.71756,28.24427,27.14118
8178,0.1367188,0.9326172,-0.1958008,-6.053435,25.17557,8.458015,27.09412
7801,0.09448242,1.021484,0.01049805,2.732824,12.66412,21.83969,27.04706
7785,0.1672363,1.003906,-0.009765625,7.435114,-1.916031,23.46565,27.09412
7793,0.2023926,0.954834,-0.1330566,12.75572,-0.6412213,21.29771,27.04706
7778,0.3168945,0.9304199,-0.2727051,12.25954,-2.709924,11.56489,27.04706
7769,0.3173828,0.9157715,-0.3745117,3.007634,0.3358779,2.633588,27.09412
7833,0.3234863,0.9321289,-0.3293457,-7.534351,1.160305,-5.198473,26.95294
7792,0.2338867,0.9555664,-0.2133789,-10.79389,1.694656,-7.61832,27.04706
7806,0.182373,0.9765625,-0.1064453,-9.267176,-0.3282443,-7.259542,27.0
7806,0.1418457,0.9775391,-0.07885742,-3.091603,-0.7099237,-4.458015,27.0
7806,0.1306152,0.9858398,-0.09985352,3.236641,-1.381679,-0.740458,27.04706
7752,0.1391602,0.9672852,-0.1923828,6.412214,-0.6717557,1.862595,27.04706
7814,0.1625977,0.9519043,-0.2631836,4.038168,-0.8091603,3.129771,27.0
7781,0.1901855,0.9589844,-0.2792969,-1.19084,-0.5038168,2.671756,26.95294
8155,0.2114258,0.9543457,-0.2192383,-6.10687,0.1679389,0.6870229,27.09412
7860,0.2197266,0.9604492,-0.1638184,-5.694656,-0.2977099,-0.8091603,27.0
7841,0.2026367,0.9660645,-0.1252441,-1.946565,-0.7099237,-1.267176,27.09412
7824,0.1875,0.9746094,-0.1379395,1.419847,-0.8167939,-1.328244,27.14118
7833,0.1835938,0.9619141,-0.1848145,5.0,-0.2824428,-1.435114,26.95294
7805,0.1838379,0.9599609,-0.208252,1.145038,-0.6717557,-1.312977,27.09412
7789,0.1721191,0.951416,-0.2436523,-1.335878,-1.114504,-0.9007633,27.04706
7824,0.1674805,0.9697266,-0.2175293,-2.351145,-0.3664122,-0.1450382,27.04706
7801,0.1848145,0.9716797,-0.1843262,-2.259542,-0.2671756,-0.05343511,27.0
7827,0.189209,0.9616699,-0.1733398,-2.458015,-0.1068702,-0.1755725,27.04706
7819,0.1862793,0.9660645,-0.1611328,-0.480916,-1.061069,-0.2290076,27.09412
7826,0.1901855,0.9711914,-0.1677246,1.267176,-0.6030535,0.129771,27.04706
7806,0.1875,0.965332,-0.1943359,0.1450382,-0.4580153,-0.1832061,27.04706
8186,0.192627,0.9611816,-0.1977539,-0.6717557,-0.5038168,-0.2824428,27.0
7871,0.1855469,0.9616699,-0.2006836,-1.717557,-0.3206107,-0.1526718,27.04706
7814,0.1765137,0.9685059,-0.1860352,-1.29771,-0.2213741,0.2671756,27.0
7832,0.1862793,0.9648438,-0.1760254,-0.4732824,-0.3435115,0.5801527,27.18824
7823,0.1918945,0.9587402,-0.1914063,-0.2442748,-0.4122138,0.7099237,27.04706
7780,0.1975098,0.9589844,-0.1987305,0.07633588,-0.610687,0.1221374,27.09412
7823,0.1916504,0.9621582,-0.1950684,-0.2442748,-0.5114504,0.05343511,27.04706
7854,0.1884766,0.9606934,-0.1955566,-0.2900764,-0.4503817,-0.09160305,27.0
7779,0.1918945,0.9697266,-0.1958008,-0.5419847,-0.3816794,-0.07633588,27.0
7783,0.1887207,0.9619141,-0.1860352,-0.5877862,-0.4885496,0.1908397,27.04706
7827,0.190918,0.9638672,-0.1921387,-0.7480916,-0.2900764,0.2748091,27.09412
7800,0.1918945,0.9655762,-0.1855469,-0.2290076,-0.5343512,0.0,27.0
7774,0.2585449,1.016602,0.005859375,129.1145,250.1298,-9.503817,27.14118
7844,1.119873,0.6660156,-0.2145996,62.59542,113.6718,-43.78626,27.04706
8161,0.08178711,0.939209,-0.4274902,2.312977,48.98473,-18.18321,27.18824
7871,0.01513672,0.9831543,-0.2697754,-13.41221,32.25954,-7.312977,27.04706
7802,0.08422852,0.9645996,-0.1425781,-18.27481,9.503817,-1.755725,27.09412
7797,0.1459961,0.9833984,-0.02978516,-12.87786,-5.145038,2.183206,27.04706
