time,ax,ay,az,gx,gy,gz,temp
8364,0.2575684,0.9577637,-0.185791,-1.312977,-1.007634,0.648855,28.55294
7816,0.2783203,0.9504395,-0.1101074,0.9923664,-1.198473,0.3206107,28.6
7835,0.2773438,0.9362793,-0.1591797,-1.21374,-0.2213741,0.7862596,28.55294
7839,0.2780762,0.9533691,-0.1672363,-0.1221374,-0.4045802,0.6183206,28.50588
7849,0.260498,0.9528809,-0.1640625,-0.8854962,-0.6412213,0.2137404,28.64706
7848,0.2602539,0.9560547,-0.1696777,-0.961832,-0.4351145,0.1068702,28.55294
7786,0.270752,0.9489746,-0.157959,-0.3282443,-0.9389313,0.2900764,28.69412
8173,0.2644043,0.9521484,-0.1647949,0.2748091,-0.1526718,0.7175572,28.6
7845,0.2607422,0.9575195,-0.1650391,-0.8015267,-0.9541985,0.2366412,28.6
7860,0.2585449,0.9450684,-0.144043,-0.2213741,-0.4351145,0.1526718,28.55294
7796,0.2678223,0.958252,-0.1633301,0.09160305,-0.9160305,0.2366412,28.50588
7807,0.2502441,0.9475098,-0.1801758,-1.198473,-0.7480916,0.1832061,28.55294
7783,0.2507324,0.9433594,-0.168457,-0.4122138,-0.3816794,0.5343512,28.64706
7796,0.2570801,0.954834,-0.1699219,-1.068702,-0.6183206,0.3816794,28.6
8192,0.2617188,0.9489746,-0.1599121,-0.4351145,-0.2900764,0.129771,28.55294
7845,0.2651367,0.947998,-0.1789551,-0.4961832,-0.5877862,0.389313,28.6
7839,0.2661133,0.9501953,-0.1689453,-0.8549618,-0.4503817,0.06870229,28.50588
7796,0.25,0.9484863,-0.1704102,-1.099237,-0.2900764,0.1374046,28.64706
7844,0.2558594,0.9558105,-0.1525879,-0.6183206,-0.4045802,0.3740458,28.6
7836,0.2558594,0.9433594,-0.1396484,-0.8015267,0.1984733,0.1603053,28.45882
7800,0.3183594,0.9396973,-0.1838379,-1.969466,-1.984733,0.3435115,28.6
7778,0.2756348,0.9863281,-0.144043,-0.4198473,-1.832061,1.572519,28.50588
7800,0.2946777,0.9355469,-0.1982422,-3.740458,-0.3969466,1.053435,28.45882
7787,0.2844238,1.054688,-0.07421875,2.137405,-1.908397,-0.1450382,28.50588
7830,0.2939453,1.000244,-0.1132813,-2.465649,-2.954198,-2.030534,28.55294
7827,0.2255859,0.9799805,-0.1130371,-3.419847,-0.01526718,-0.5267176,28.55294
7779,0.230957,0.9599609,-0.09423828,-0.9694656,-0.8549618,1.48855,28.50588
7822,0.2385254,0.9494629,-0.1228027,0.519084,-1.10687,1.954198,28.64706
8202,0.2583008,0.9472656,-0.2172852,2.030534,-1.625954,1.419847,28.55294
7891,0.2687988,0.965332,-0.220459,-0.4580153,0.4427481,-0.1603053,28.64706
7834,0.2380371,0.9440918,-0.1984863,-3.312977,1.366412,-0.9312977,28.6
7808,0.2458496,0.9536133,-0.1340332,-2.832061,1.374046,-1.244275,28.55294
7785,0.2519531,0.9638672,-0.1032715,-1.832061,-0.2748091,0.09160305,28.55294
7774,0.2414551,0.9460449,-0.157959,1.740458,-1.48855,1.916031,28.6
7806,0.2648926,0.9504395,-0.1682129,2.427481,-1.610687,1.51145,28.50588
7764,0.2734375,0.9580078,-0.2111816,-3.175573,-2.167939,0.2213741,28.6
7832,0.2709961,0.9609375,-0.1547852,-2.007634,0.9694656,-0.8015267,28.55294
7788,0.2436523,0.9321289,-0.1589355,-3.709924,0.3816794,-1.015267,28.6
7810,0.2502441,0.9482422,-0.1306152,-1.610687,-0.6259542,-0.7557252,28.55294
7801,0.2478027,0.9624023,-0.1413574,2.068702,-1.679389,0.4732824,28.64706
7804,0.2370605,0.9597168,-0.184082,1.717557,-0.610687,1.870229,28.6
7798,0.277832,0.9443359,-0.1994629,-1.19084,-0.1221374,1.145038,28.50588
8223,0.2792969,0.9472656,-0.1645508,-2.70229,-0.259542,-0.5496183,28.6
7874,0.2709961,0.9506836,-0.1386719,-1.564886,-0.6870229,-0.6946565,28.64706
7860,0.244873,0.9597168,-0.1464844,-0.1679389,-0.832061,-0.02290076,28.6
7788,0.2443848,0.9577637,-0.1564941,1.122137,-0.6564885,0.7938931,28.50588
7782,0.2473145,0.9475098,-0.1950684,-0.1603053,-0.7022901,0.8015267,28.55294
7799,0.2680664,0.9382324,-0.1914063,-1.954198,-0.007633588,0.2442748,28.6
7838,0.2702637,0.9448242,-0.1606445,-2.305344,-0.03053435,-0.4580153,28.55294
7796,0.2619629,0.9614258,-0.1484375,-0.6183206,-0.519084,-0.3206107,28.64706
7787,0.2580566,0.9509277,-0.1408691,-0.007633588,-0.8167939,0.4656488,28.50588
7788,0.2575684,0.947998,-0.1696777,0.1068702,-0.832061,0.4732824,28.55294
7821,0.2597656,0.9516602,-0.1806641,-0.7099237,-0.3969466,0.6641222,28.6
7813,0.2565918,0.9545898,-0.1655273,-1.801527,-0.5419847,0.6870229,28.64706
7804,0.2634277,0.9538574,-0.1547852,-1.183206,-0.7251908,0.3206107,28.50588
8198,0.2583008,0.9509277,-0.1669922,-1.21374,-0.4503817,-0.007633588,28.64706
7834,0.2575684,0.9506836,-0.1599121,-1.351145,-0.5572519,0.09160305,28.55294
7802,0.2563477,0.9543457,-0.1674805,-0.3816794,-0.6870229,0.4503817,28.6
7828,0.2602539,0.949707,-0.1601563,-0.2442748,-0.6335878,0.2519084,28.55294
7814,0.2575684,0.9475098,-0.1669922,-0.5343512,-0.480916,0.2290076,28.6
7796,0.263916,0.9511719,-0.1794434,-1.015267,0.1908397,0.07633588,28.55294
7810,0.263916,0.9467773,-0.1660156,-1.030534,-0.3969466,0.351145,28.50588
7768,0.2651367,0.951416,-0.1533203,-0.3129771,-1.099237,0.3816794,28.50588
7817,0.2619629,0.9519043,-0.1530762,-0.2748091,-1.160305,0.5648855,28.45882
7808,0.2722168,0.9489746,-0.177002,-0.8167939,-0.7251908,-0.2213741,28.50588
7831,0.2480469,0.9519043,-0.1696777,-1.251908,-0.7022901,-0.2977099,28.55294
7811,0.2507324,0.958252,-0.140625,-1.076336,-0.4045802,0.1068702,28.50588
7833,0.2492676,0.9587402,-0.1467285,-0.4503817,-0.6793893,0.5419847,28.55294
7832,0.2636719,0.9521484,-0.1818848,-0.1603053,-0.4580153,0.5572519,28.55294
8217,0.2670898,0.953125,-0.1777344,-1.343511,-1.19084,0.389313,28.6
7884,0.2585449,0.9528809,-0.1601563,-1.244275,-0.5114504,0.007633588,28.6
7815,0.2565918,0.9470215,-0.1594238,-0.9007633,-0.5419847,0.03816794,28.55294
7819,0.2519531,0.9580078,-0.1577148,-0.03053435,-0.4961832,0.2748091,28.64706
7805,0.255127,0.9528809,-0.1728516,0.480916,-0.5419847,0.5572519,28.55294
7840,0.262207,0.9523926,-0.1772461,-0.4656488,-0.259542,0.6641222,28.55294
7818,0.2692871,0.9484863,-0.1791992,-1.091603,0.1450382,0.3282443,28.6
7819,0.2741699,0.9472656,-0.175293,-1.564886,-0.02290076,-0.1221374,28.50588
7858,0.2624512,0.9492188,-0.1520996,-1.152672,-1.122137,-0.4656488,28.6
7790,-0.03588867,0.9936523,-0.02587891,96.61832,250.1298,-31.17557,28.6
7807,0.8640137,0.7001953,-0.394043,44.52672,141.8397,-60.68702,28.64706
7824,0.5427246,0.791748,-0.3227539,-1.618321,-30.49618,-62.29008,28.55294
7806,-0.2314453,1.296387,-0.7714844,23.48855,80.09924,-37.78626,28.55294
7816,0.01977539,1.444336,-0.1691895,11.9771,37.86259,-15.68702,28.6
8218,-0.168457,1.034424,-0.2583008,-10.85496,0.740458,12.70229,28.50588
7854,-0.03100586,1.108643,-0.02661133,-2.801527,-8.625955,43.22137,28.55294
7839,0.04931641,0.9875488,-0.0715332,-2.0,-0.961832,63.42748,28.6
7839,0.6181641,0.9138184,-0.1777344,-3.40458,-13.72519,32.28244,28.55294
7792,0.3225098,0.9499512,-0.140625,0.480916,1.717557,26.71756,28.55294
7838,0.3869629,0.8986816,-0.1682129,-1.664122,-0.4961832,16.29771,28.45882
7793,0.3620605,0.9104004,-0.151123,-0.6641222,1.259542,8.78626,28.50588
7799,0.3664551,0.9147949,-0.1630859,-0.8625955,0.8931297,3.977099,28.6
7799,0.3635254,0.9394531,-0.1499023,0.7862596,-1.312977,0.3053435,28.55294
7820,0.3227539,0.9223633,-0.166748,-0.9312977,-0.6717557,-1.671756,28.6
7796,0.3215332,0.9174805,-0.1640625,-0.8854962,-0.259542,-4.625954,28.64706
7848,0.3278809,0.9472656,-0.1450195,0.3435115,-0.9236641,-6.740458,28.50588
7822,0.3098145,0.9453125,-0.130127,-0.05343511,-0.9541985,-8.419847,28.55294
7807,0.2888184,0.9394531,-0.1484375,0.1755725,-0.3664122,-9.221375,28.55294
8217,0.2641602,0.9494629,-0.1633301,0.3664122,-0.7251908,-8.709924,28.6
7865,0.2590332,0.9519043,-0.1640625,0.2290076,-1.0,-8.083969,28.6
7820,0.2346191,1.001953,-0.1120605,-2.603053,-0.2290076,-10.35878,28.50588
7805,0.2416992,0.970459,-0.1047363,0.2442748,-1.977099,-7.832061,28.55294
7800,0.2275391,0.9587402,-0.1418457,-2.129771,-0.3435115,-3.732824,28.50588
7813,0.2275391,0.9533691,-0.1577148,-1.312977,0.06870229,-1.129771,28.50588
7806,0.255127,0.9375,-0.1591797,-1.068702,-1.244275,-0.3282443,28.55294
7778,0.2458496,0.9550781,-0.1577148,0.7022901,-0.1832061,1.076336,28.69412
7789,0.2614746,0.9545898,-0.1591797,-0.2671756,-0.2977099,1.061069,28.6
7824,0.2719727,0.9433594,-0.1662598,-1.19084,-0.3129771,0.610687,28.55294
7820,0.2695313,0.939209,-0.1606445,-1.541985,-0.07633588,0.1526718,28.6
7794,0.2626953,0.9541016,-0.1577148,-1.045802,-0.5954198,0.3435115,28.55294
7797,0.2590332,0.9560547,-0.1447754,0.06870229,-0.7938931,0.06870229,28.64706
7774,0.2663574,0.9560547,-0.1652832,0.129771,-0.6335878,0.1679389,28.50588
8186,0.269043,0.9606934,-0.1484375,-0.4961832,-0.8091603,-0.007633588,28.55294
7824,0.8815918,0.8178711,-0.2763672,83.35878,250.1298,-31.85496,28.50588
7790,0.8461914,0.9018555,-0.293457,35.87023,34.01527,-68.32061,28.55294
7815,0.06469727,1.020264,-0.5454102,0.6412213,61.0,-91.24428,28.6
7835,-0.421875,1.003174,-0.3476563,-3.78626,16.73282,7.251908,28.6
7802,0.03100586,1.041748,-0.07080078,-18.81679,2.534351,-0.9160305,28.50588
7809,0.05957031,0.9091797,-0.0715332,-21.44275,-1.290076,-9.015267,28.55294
7816,0.4443359,0.8608398,-0.078125,0.480916,4.931298,-9.549619,28.55294
7815,-0.06274414,1.020752,-0.001464844,3.381679,-4.312977,7.687023,28.64706
7779,0.1682129,0.9970703,-0.05322266,10.80916,-2.0,9.083969,28.6
7807,0.2277832,0.9265137,-0.2380371,9.396947,-2.244275,10.60305,28.55294
7794,0.2932129,0.9436035,-0.2595215,5.129771,-1.916031,7.022901,28.6
7809,0.2658691,0.9462891,-0.2583008,-2.709924,0.1832061,5.870229,28.50588
7803,0.2385254,0.9484863,-0.1760254,-6.557252,0.3816794,6.709924,28.55294
8157,0.2595215,0.9543457,-0.1025391,-4.625954,0.1603053,6.244275,28.6
7846,0.2902832,0.9309082,-0.1013184,-1.908397,-0.5496183,4.274809,28.55294
7799,0.2973633,0.9440918,-0.1115723,1.061069,-1.625954,1.526718,28.6
7830,0.3017578,0.9367676,-0.1506348,2.091603,-0.4122138,-0.8015267,28.55294
7793,0.2834473,0.9421387,-0.1777344,0.3282443,-0.2290076,-2.099237,28.45882
7805,0.2575684,0.9528809,-0.1794434,-2.694656,0.1526718,-2.541985,28.50588
7843,0.251709,0.949707,-0.1459961,-2.732824,-0.1526718,-2.526718,28.50588
7789,0.2529297,0.953125,-0.1264648,-1.541985,-0.6412213,-2.389313,28.64706
7780,0.2478027,0.9621582,-0.1240234,0.2213741,-0.7709923,-2.557252,28.55294
7822,0.2333984,0.9577637,-0.1447754,1.091603,-0.5114504,-1.534351,28.41176
7821,0.2277832,0.947998,-0.171875,0.2442748,-0.6717557,-0.8244275,28.45882
7806,0.2319336,0.9621582,-0.171875,-1.580153,-0.4503817,0.389313,28.50588
7813,0.2370605,0.9602051,-0.1420898,-1.931298,-0.5419847,1.061069,28.50588
8191,0.2463379,0.9521484,-0.1403809,-0.9694656,-0.8091603,1.19084,28.55294
7834,0.2563477,0.9533691,-0.1330566,0.2366412,-0.5572519,0.9923664,28.55294
16217,0.2531738,0.9499512,-0.140625,0.03816794,-0.4122138,0.0610687,28.41176
7840,0.255127,0.9509277,-0.1542969,-1.198473,-0.389313,-0.4503817,28.55294
7833,0.2556152,0.9523926,-0.1501465,-1.709924,-0.4198473,-0.6870229,28.50588
7825,0.2412109,0.9526367,-0.1335449,-0.9694656,-0.4122138,-0.259542,28.45882
7810,0.2397461,0.9511719,-0.1467285,0.1068702,-0.5038168,-0.1374046,28.6
7781,0.244873,0.9570313,-0.1489258,0.129771,-0.3816794,0.3053435,28.55294
7820,-0.4350586,1.036621,-0.07104492,135.3664,250.1298,46.42748,28.64706
7784,1.238525,0.6855469,-0.1147461,74.35114,190.2824,-45.30534,28.6
7821,0.380127,0.7329102,-0.6064453,17.9771,18.22137,-60.98473,28.6
7803,0.002929688,1.035889,-0.6022949,-0.1984733,103.7405,-70.75572,28.45882
7847,-0.06298828,0.8840332,-0.3203125,-18.74046,52.94656,10.56489,28.55294
7813,0.2211914,0.953125,0.01782227,-25.58015,9.847328,-20.21374,28.50588
8155,0.112793,0.9799805,0.1022949,-13.07634,0.610687,-12.32824,28.50588
7851,0.1755371,0.9692383,0.04199219,-4.198473,0.1908397,-8.78626,28.50588
7829,0.2060547,0.972168,-0.01635742,5.40458,-1.854962,-7.442748,28.55294
7808,0.1486816,0.9833984,-0.05322266,8.244275,-2.633588,-1.183206,28.55294
7829,0.1259766,0.9760742,-0.1542969,10.24428,-2.954198,6.763359,28.50588
7818,0.1706543,0.9584961,-0.2277832,5.778626,-0.6946565,10.83206,28.45882
7793,0.2353516,0.9450684,-0.2236328,0.351145,-0.2290076,11.67176,28.50588
7821,0.2685547,0.942627,-0.1713867,-2.541985,-0.8778625,11.65649,28.55294
7815,0.2666016,0.951416,-0.1020508,-0.8244275,-0.9083969,12.06107,28.6
7812,0.3015137,0.9484863,-0.1025391,1.221374,-1.534351,10.78626,28.6
7838,0.3334961,0.9245605,-0.1464844,1.412214,-1.129771,7.541985,28.55294
7795,0.3510742,0.9179688,-0.182373,0.519084,-0.6641222,3.70229,28.6
7848,0.3364258,0.9394531,-0.1674805,-0.4122138,-0.4656488,0.3587786,28.6
7822,0.3139648,0.9523926,-0.1479492,-1.129771,-0.2977099,-1.167939,28.45882
8269,0.2741699,0.9492188,-0.1396484,-1.946565,-0.2977099,-4.435114,28.55294
7870,0.2524414,0.9560547,-0.1342773,-2.374046,-0.1145038,-3.656489,28.55294
7891,0.2441406,0.9494629,-0.1240234,-2.007634,-0.007633588,-1.801527,28.55294
7828,0.2480469,0.9528809,-0.1237793,-0.8854962,-0.3587786,-0.5877862,28.6
7840,0.251709,0.967041,-0.1325684,0.129771,-0.3969466,0.1984733,28.45882
7826,0.2431641,0.9545898,-0.1394043,0.5877862,-0.6870229,1.816794,28.55294
7811,0.2626953,0.9465332,-0.1396484,-0.03816794,-0.7633588,2.29771,28.50588
7832,0.28125,0.9462891,-0.1520996,-0.5419847,-0.3816794,1.671756,28.55294
7819,0.2907715,0.942627,-0.137207,-1.053435,-0.648855,0.6641222,28.6
7837,0.2792969,0.9501953,-0.1374512,-0.778626,-0.3358779,0.2442748,28.45882
7881,0.2780762,0.9489746,-0.1306152,-0.389313,-0.7480916,-0.3053435,28.6
7856,0.2868652,0.949707,-0.1455078,-0.2213741,-0.519084,-0.8473283,28.64706
7802,0.2697754,0.9499512,-0.1359863,-0.7251908,-0.3282443,-0.7480916,28.6
7817,0.2561035,0.9562988,-0.1455078,-1.328244,-0.4656488,-0.1679389,28.64706
8200,0.2670898,0.942627,-0.1359863,-1.061069,-0.4885496,0.3587786,28.6
7869,0.2663574,0.9462891,-0.135498,-0.8778625,-0.4885496,0.4656488,28.50588
7802,0.8937988,0.689209,-0.5651855,110.542,250.1298,-9.877863,28.55294
7825,0.8242188,0.7192383,-0.6896973,18.43511,53.93893,-56.77099,28.50588
7841,0.1748047,0.8857422,-0.5695801,-13.32824,46.0687,-56.32824,28.55294
7862,-0.2314453,0.9060059,-0.328125,-10.03817,91.52672,5.748092,28.55294
7811,0.3132324,0.9909668,0.09375,-15.18321,32.61069,-12.9542,28.55294
7845,0.1828613,0.9538574,-0.01025391,-10.58015,5.10687,-3.946565,28.41176
7834,0.2739258,0.9074707,-0.1096191,-4.908397,-5.251908,-4.152672,28.55294
7818,0.3085938,0.9614258,-0.07226563,-0.4503817,0.0610687,-7.282443,28.6
7804,0.2873535,0.9389648,-0.07861328,-4.458015,1.0,-11.79389,28.55294
7839,0.1743164,0.9638672,-0.05761719,-0.870229,-0.07633588,-5.610687,28.50588
7837,0.1303711,0.996582,-0.07446289,4.694656,-1.748092,3.587786,28.55294
7771,0.1767578,0.9645996,-0.1643066,5.427481,-0.5725191,8.503817,28.55294
8149,0.2607422,0.9406738,-0.1437988,3.419847,-0.6793893,8.534351,28.6
7837,0.2741699,0.932373,-0.135498,1.740458,-0.832061,8.366412,28.50588
7817,0.2836914,0.9433594,-0.1306152,2.51145,-1.312977,8.61832,28.55294
7828,0.2973633,0.9521484,-0.1494141,2.419847,-1.381679,7.725191,28.50588
7786,0.3127441,0.9443359,-0.1586914,2.664122,-0.7022901,5.801527,28.6
7803,0.3154297,0.939209,-0.1362305,4.923664,-4.076336,4.603054,28.55294
7812,0.3146973,0.9438477,-0.1306152,3.305344,-0.6030535,2.748092,28.50588
7828,0.3186035,0.9150391,-0.1809082,-1.206107,-0.2061069,1.625954,28.50588
7830,0.3017578,0.921875,-0.1706543,-0.8244275,-0.5725191,0.9389313,28.55294
7830,0.3171387,0.9597168,-0.1469727,0.2977099,-0.4656488,-0.4122138,28.50588
7833,0.3132324,0.9519043,-0.1281738,-1.0,-0.6412213,-2.022901,28.55294
7842,0.2875977,0.9301758,-0.1462402,-1.419847,0.2519084,-2.442748,28.50588
7818,0.284668,0.940918,-0.1462402,-2.076336,0.1526718,-2.167939,28.45882
7854,0.2849121,0.949707,-0.1479492,-1.725191,-0.4961832,-2.061069,28.41176
8224,0.2832031,0.9470215,-0.1435547,-1.725191,-0.1832061,-1.961832,28.55294
7870,0.2719727,0.956543,-0.1191406,-1.824428,-0.1984733,-1.78626,28.55294
7845,0.263916,0.9501953,-0.135498,-1.236641,-0.6030535,-1.320611,28.50588
7849,0.2702637,0.9367676,-0.1364746,-1.030534,-0.4427481,-0.4732824,28.55294
7843,0.2753906,0.9458008,-0.128418,-0.9312977,-0.2519084,0.03053435,28.50588
7880,0.2692871,0.9506836,-0.1271973,-0.4427481,-0.3969466,0.9236641,28.45882
7807,0.2753906,0.9428711,-0.1416016,-0.09923664,-0.6717557,1.114504,28.55294
7838,0.277832,0.9460449,-0.1452637,-0.09923664,-0.7938931,0.6870229,28.6
7793,0.286377,0.9372559,-0.1518555,0.04580153,-0.6564885,0.2671756,28.55294
7801,0.2915039,0.9455566,-0.1359863,-0.5343512,-0.4656488,-0.01526718,28.45882
7808,0.9040527,0.776123,-0.3085938,118.4885,250.1298,-30.00763,28.50588
7783,1.197266,0.8613281,-0.5202637,51.67176,96.12214,-45.52672,28.45882
7829,0.284668,1.065186,-0.5092773,6.167939,34.22137,-47.24427,28.45882
7870,-0.2329102,0.9277344,-0.5327148,-16.25191,54.16794,-20.80153,28.50588
8187,0.324707,0.970459,-0.0456543,-11.18321,-1.725191,21.84733,28.50588
7835,0.3781738,0.9936523,0.009765625,3.40458,-4.267176,14.91603,28.6
7820,0.3652344,0.9250488,-0.06982422,-0.4045802,-0.9847328,6.519084,28.55294
7837,0.3461914,0.8774414,-0.1201172,-0.1374046,-0.7099237,0.3129771,28.50588
7830,0.3100586,0.9414063,-0.1091309,5.961832,-0.610687,0.4580153,28.55294
7799,0.2980957,0.9606934,-0.1008301,7.48855,-2.267176,0.6793893,28.55294
7839,0.2700195,0.9482422,-0.1611328,5.580153,-1.282443,2.137405,28.55294
7810,0.2663574,0.9443359,-0.182373,4.358778,-0.9923664,3.946565,28.55294
7838,0.2834473,0.9487305,-0.1662598,2.633588,-1.061069,4.862596,28.55294
7770,0.309082,0.9396973,-0.1333008,0.9847328,-0.480916,4.748092,28.55294
7801,0.3186035,0.9443359,-0.1425781,0.2900764,-1.099237,3.931298,28.6
7846,0.3232422,0.942627,-0.1459961,0.6717557,-1.022901,2.969466,28.41176
7806,0.3166504,0.9316406,-0.1403809,0.8549618,-0.8091603,1.923664,28.55294
8199,0.3137207,0.9418945,-0.1503906,1.251908,-0.7251908,1.007634,28.6
7829,0.3034668,0.9418945,-0.1472168,0.1755725,-0.5801527,1.076336,28.45882
7848,0.3000488,0.9396973,-0.1462402,-0.05343511,-0.5267176,1.007634,28.55294
7832,0.3076172,0.932373,-0.1496582,-1.969466,-0.02290076,0.5572519,28.55294
7814,0.3190918,0.9399414,-0.1518555,-0.832061,-0.4198473,0.4122138,28.55294
7828,0.3122559,0.9406738,-0.140625,-1.206107,-0.2900764,-0.04580153,28.6
7825,0.3100586,0.9428711,-0.1367188,-0.8625955,-0.3664122,-0.0610687,28.55294
7784,0.3076172,0.9377441,-0.1445313,-0.8625955,-0.4198473,-0.07633588,28.50588
7875,0.2990723,0.9404297,-0.1445313,-0.6870229,-0.4351145,-0.1221374,28.6
7858,0.2973633,0.9389648,-0.1538086,-0.2977099,-0.4580153,0.2137404,28.45882
7844,0.3059082,0.9375,-0.1506348,-1.137405,-0.5496183,0.1603053,28.6
7842,0.3010254,0.9406738,-0.1445313,-0.5038168,-0.6870229,0.03053435,28.55294
7789,0.3000488,0.953125,-0.154541,-0.3282443,-0.3664122,-0.03816794,28.45882
7851,0.3044434,0.9350586,-0.1433105,-0.832061,-0.480916,-0.129771,28.50588
8208,0.3054199,0.9367676,-0.135498,-1.396947,-0.2977099,-0.4885496,28.55294
7851,-0.03051758,0.989502,-0.2700195,131.2061,250.1298,-24.33588,28.55294
7782,1.311279,0.8920898,-0.7602539,49.12977,108.7405,-63.70992,28.50588
7801,0.1469727,1.455811,-0.6408691,-0.6335878,59.12977,109.6565,28.45882
7841,-0.5578613,0.7102051,-0.3139648,-18.69466,81.87023,-58.77863,28.45882
7856,-0.2231445,0.9775391,-0.2004395,-27.87023,52.05344,-6.259542,28.50588
7820,-0.06787109,1.096924,0.104248,-23.22901,31.29008,21.77099,28.45882
7791,0.02832031,0.9848633,0.009521484,-9.030535,9.801527,49.9542,28.55294
7814,0.1164551,1.038086,-0.06005859,-2.656489,-2.770992,31.56489,28.50588
7802,0.2436523,1.127197,-0.2414551,-10.51145,5.480916,33.14504,28.55294
7812,0.3808594,0.8713379,-0.1452637,-13.03053,4.160306,24.70229,28.50588
7810,0.3378906,0.9758301,0.0378418,-5.664122,10.10687,22.25191,28.50588
7808,0.3710938,0.873291,-0.02709961,4.320611,2.610687,15.69466,28.36471
7808,0.4743652,0.9313965,-0.03833008,5.427481,-3.89313,5.801527,28.50588
8138,0.494873,0.8918457,-0.1218262,6.969466,-2.908397,-6.70229,28.6
7871,0.3696289,0.8776855,-0.1560059,8.152672,-1.259542,-11.09924,28.50588
7844,0.2744141,0.9521484,-0.1264648,14.43511,-0.3129771,-8.099236,28.50588
7835,0.220459,0.9675293,-0.1687012,10.12214,-2.473282,-2.770992,28.45882
7791,0.2370605,0.9462891,-0.237793,5.755725,-3.419847,1.366412,28.50588
7817,0.2434082,0.9318848,-0.2431641,0.2290076,-0.6335878,4.229008,28.45882
7812,0.3076172,0.9475098,-0.166748,-0.7633588,-1.343511,5.122138,28.50588
7840,0.324707,0.9328613,-0.1286621,1.923664,-1.59542,4.633588,28.45882
7806,0.3530273,0.9189453,-0.142334,2.755725,-2.045802,2.541985,28.50588
7795,0.3730469,0.9208984,-0.1594238,2.091603,-2.083969,-2.389313,28.50588
7808,0.3554688,0.9255371,-0.1704102,0.8015267,-0.4732824,-3.038168,28.45882
7822,0.3149414,0.9421387,-0.1464844,0.778626,-0.832061,-2.908397,28.50588
7777,0.2993164,0.9423828,-0.1533203,0.9083969,-0.9083969,-1.832061,28.6
7793,0.2983398,0.9443359,-0.1779785,1.59542,-0.2824428,-0.4351145,28.55294
8217,0.3237305,0.9343262,-0.1520996,-1.335878,-0.7022901,0.870229,28.6
7816,0.3222656,0.9294434,-0.1455078,-0.3206107,-0.5038168,0.1221374,28.41176
7846,0.322998,0.9345703,-0.1420898,-0.3740458,-0.5572519,-0.4045802,28.64706
7820,0.3100586,0.9401855,-0.1489258,-0.9770992,-0.7938931,-0.5877862,28.50588
7816,0.3034668,0.9436035,-0.1481934,-0.5648855,-0.5877862,0.4427481,28.55294
7851,0.3027344,0.9533691,-0.1450195,-1.114504,-0.6641222,0.8625955,28.64706
7837,0.1394043,0.798584,-0.1774902,109.313,250.1298,-14.52672,28.55294
7817,1.057861,0.8557129,-0.5129395,59.38168,64.9313,-41.29771,28.45882
16200,0.1455078,1.213379,-0.01513672,24.52672,27.24427,-56.89313,28.45882
7837,-0.1635742,0.4174805,-0.4892578,-2.206107,89.35114,0.6335878,28.45882
7802,0.07519531,1.18042,-0.2145996,-29.65649,44.13741,161.3893,28.45882
7754,0.276123,1.072266,-0.2036133,-14.44275,15.8626,111.9313,28.50588
7818,0.2009277,0.9743652,-0.01733398,-13.83206,-8.175572,17.00763,28.50588
7814,0.1777344,1.008057,-0.0703125,-14.28244,5.946565,30.9313,28.45882
8149,0.2282715,0.9074707,-0.2253418,-10.22137,3.458015,29.90076,28.50588
7831,0.3425293,0.9333496,-0.1625977,-9.984733,6.206107,22.69466,28.55294
7829,0.4118652,0.9130859,-0.07958984,-9.854961,8.290076,16.72519,28.55294
7827,0.4921875,0.8959961,-0.07861328,-9.167939,-0.5648855,7.450382,28.50588
7814,0.4919434,1.011719,-0.4230957,14.55725,19.77099,-12.32061,28.41176
7808,0.4233398,0.9064941,-0.03564453,0.4045802,0.740458,-8.251908,28.6
7829,0.3481445,0.9331055,-0.0925293,3.274809,-0.519084,-8.19084,28.45882
7795,0.2646484,0.9145508,-0.1296387,3.40458,0.4885496,-5.435114,28.41176
7820,0.2536621,0.9631348,-0.1503906,8.061069,-1.725191,-0.7709923,28.55294
7792,0.237793,0.9294434,-0.1625977,5.847328,-0.2977099,2.923664,28.45882
7771,0.293457,0.9360352,-0.173584,3.770992,-1.549618,4.839694,28.50588
7841,0.354248,0.9255371,-0.1669922,4.274809,-3.076336,3.0,28.55294
7809,0.3808594,0.8996582,-0.1809082,2.381679,-2.21374,0.0,28.45882
7837,0.3994141,0.9106445,-0.1508789,4.229008,-1.70229,-3.931298,28.6
8214,0.3439941,0.9189453,-0.1887207,2.061069,-1.274809,-5.748092,28.55294
7882,0.3007813,0.9262695,-0.1662598,0.1908397,-0.7938931,-5.465649,28.45882
7837,0.2768555,0.9592285,-0.171875,0.648855,-2.045802,-2.519084,28.45882
7816,0.2810059,0.9450684,-0.1977539,0.7938931,-1.160305,1.221374,28.41176
7812,0.2949219,0.9406738,-0.1743164,-1.587786,-0.7633588,1.374046,28.36471
7856,0.3405762,0.9208984,-0.1772461,-3.198473,-1.274809,-0.03053435,28.41176
7849,0.3356934,0.8752441,-0.1184082,-9.801527,-22.20611,-30.32061,28.55294
7850,0.3190918,0.9350586,-0.1257324,-2.923664,0.2290076,-1.030534,28.50588
7825,0.3161621,0.934082,-0.1203613,-2.503817,-0.5114504,-0.610687,28.50588
7807,0.307373,0.9274902,-0.1345215,-1.015267,-0.7557252,0.04580153,28.50588
7821,0.3125,0.9350586,-0.1416016,-0.1908397,-0.9923664,0.8015267,28.45882
7803,0.3164063,0.9460449,-0.138916,0.3587786,-0.7328244,0.6412213,28.41176
7849,0.3320313,0.9326172,-0.1520996,0.7022901,-0.9007633,-0.2366412,28.55294
7839,0.3222656,0.9277344,-0.1691895,0.1450382,-0.389313,-0.3129771,28.55294
8186,0.309082,0.9318848,-0.1657715,-0.9923664,-0.2671756,0.1068702,28.50588
7873,0.3151855,0.935791,-0.1452637,-0.9541985,-0.4656488,0.5572519,28.50588
7788,0.317627,0.9384766,-0.1455078,0.1068702,-0.7022901,0.8244275,28.50588
7812,0.3212891,0.9377441,-0.1564941,0.2900764,-0.1755725,1.480916,28.45882
7795,0.1132813,0.9768066,-0.02026367,106.9618,250.1298,-30.25954,28.45882
7814,0.439209,0.8735352,-0.1989746,77.70229,250.1298,-48.45802,28.50588
7861,0.4428711,0.6665039,-0.6489258,-7.854962,10.36641,-70.1145,28.45882
7846,-0.1843262,0.8659668,-0.5454102,-20.61832,40.48092,-29.12214,28.55294
7830,-0.4775391,1.10376,-0.1755371,-8.412213,96.60305,31.33588,28.50588
7807,0.2182617,0.5925293,-0.3862305,-36.01527,46.37405,47.80916,28.45882
7789,0.2797852,0.907959,0.004150391,-17.41221,26.87786,48.74809,28.55294
7779,0.3251953,0.8769531,0.1147461,1.618321,-5.862596,55.85496,28.50588
7801,0.449707,0.9858398,0.09741211,15.25954,-14.15267,36.23664,28.45882
7802,0.390625,0.9199219,-0.04248047,18.27481,-15.06107,26.83206,28.50588
8174,0.4291992,0.9362793,-0.3156738,-15.36641,-29.41985,-7.946565,28.45882
7867,0.3173828,0.953125,-0.2275391,-27.42748,-39.57252,-5.80916,28.55294
7864,0.2729492,0.9396973,-0.1437988,-27.70229,-51.13741,-1.51145,28.55294
7772,0.2160645,0.9785156,-0.07739258,-20.34351,-56.45038,4.030534,28.55294
7800,0.2573242,1.019043,-0.1240234,-17.01527,-67.51145,9.038168,28.50588
7873,0.3325195,0.9689941,-0.01293945,-10.81679,-71.33588,11.61832,28.45882
7797,0.3618164,1.023438,0.01611328,-14.90076,-75.49619,9.862596,28.41176
7837,0.4326172,0.9589844,-0.0637207,-14.57252,-76.16794,5.770992,28.45882
7822,0.434082,0.9301758,-0.3149414,-22.58779,-75.96947,-0.2977099,28.41176
7821,0.420166,0.8620605,-0.3649902,-21.22137,-77.21374,-4.458015,28.50588
7817,0.3754883,0.8725586,-0.1574707,-20.23664,-71.91603,-6.076336,28.50588
7840,0.307373,0.9265137,-0.2578125,-17.07634,-58.74809,-4.236641,28.55294
7831,0.3183594,0.9675293,-0.015625,-9.770992,-46.25191,-4.48855,28.50588
8184,0.3007813,0.9853516,0.03393555,2.740458,-32.62595,-7.519084,28.45882
7865,0.2490234,0.9592285,-0.2678223,5.480916,-18.05343,-7.709924,28.45882
7782,0.1906738,0.9199219,-0.3908691,-0.03053435,1.969466,0.3358779,28.50588
7802,0.2792969,0.9343262,-0.2539063,-12.89313,3.343511,4.351145,28.45882
7817,0.3303223,0.9458008,-0.1289063,-14.80916,2.076336,4.038168,28.50588
7808,0.3601074,0.9499512,-0.04077148,-11.77863,-0.8244275,1.78626,28.45882
7829,0.3395996,0.9443359,-0.004638672,-1.152672,-1.343511,-0.2977099,28.41176
7839,0.362793,0.9133301,-0.03833008,3.267176,-3.343511,-1.435114,28.55294
7829,0.3869629,0.9350586,-0.0300293,10.35114,-3.854962,-5.435114,28.50588
7835,0.4084473,0.9157715,-0.07836914,13.0458,-4.832061,-9.80916,28.45882
7837,0.4208984,0.9375,-0.03979492,16.05343,-4.221374,-14.35878,28.6
7840,0.4360352,0.9172363,-0.02001953,24.35878,-4.0,-21.40458,28.55294
16253,0.5197754,1.024902,-0.05810547,49.35878,-9.473283,-32.12977,28.41176
7825,0.2236328,0.8393555,-0.5908203,36.17557,3.709924,-36.65649,28.50588
8212,0.05224609,0.9672852,-0.6713867,-0.3587786,6.992366,-11.77099,28.45882
7866,0.1223145,0.9741211,-0.3864746,-21.80916,7.763359,-0.2748091,28.50588
7820,0.1223145,0.925293,-0.2165527,-20.25191,10.01527,7.946565,28.45882
7822,0.234375,0.9680176,-0.1687012,-14.94656,8.984733,10.87023,28.50588
7810,0.2834473,0.9326172,-0.1696777,-16.99237,10.64122,10.74046,28.45882
7776,0.3410645,0.9555664,-0.07226563,-17.58779,5.931298,10.00763,28.45882
7780,0.3122559,0.9475098,0.1164551,-5.312977,-2.59542,7.587786,28.41176
7817,0.3015137,0.8916016,-0.01757813,3.099237,-4.152672,7.89313,28.36471
7805,0.2731934,0.9606934,-0.07226563,21.09924,10.1145,6.389313,28.41176
7788,0.3640137,1.020508,-0.2341309,16.66412,-3.916031,4.89313,28.45882
7780,0.3352051,0.9821777,-0.2199707,9.763359,-0.5648855,2.641221,28.45882
7805,0.3374023,0.9052734,-0.394043,-0.1908397,-1.290076,-0.3435115,28.50588
7770,0.298584,0.953125,-0.2272949,-8.198473,2.70229,0.09923664,28.45882
7790,0.2929688,0.923584,-0.2211914,-13.42748,2.21374,0.1068702,28.45882
8166,0.3100586,0.951416,-0.1032715,-5.465649,-0.06870229,0.3435115,28.50588
7866,0.3027344,0.9509277,-0.07324219,-0.9083969,-0.778626,0.6412213,28.41176
7815,0.3139648,0.9345703,-0.1345215,3.679389,-1.740458,0.4580153,28.55294
7805,0.3120117,0.9318848,-0.1911621,5.70229,-1.664122,-0.259542,28.50588
7814,0.7275391,0.9296875,0.02392578,78.61832,250.1298,-55.03053,28.6
7809,0.9404297,0.5209961,-0.3884277,11.10687,-6.114504,-85.83206,28.55294
7797,0.2399902,1.287109,-0.03222656,30.68702,18.53435,-50.15267,28.50588
7806,0.1186523,0.9702148,0.0002441406,25.74046,55.52672,-40.08397,28.45882
7792,0.1813965,0.7307129,-0.08325195,51.20611,52.80916,-59.65649,28.45882
7808,-0.08544922,1.071533,-0.5507813,38.89313,44.0916,-24.17557,28.50588
7800,-0.2492676,1.075195,-0.7878418,-12.87023,3.48855,41.0458,28.45882
7837,-0.09155273,0.9179688,-0.3139648,-27.23664,14.8855,34.35878,28.50588
7811,0.2490234,1.089844,-0.02416992,-25.9313,4.007634,36.16794,28.50588
7751,0.3359375,0.9841309,0.04345703,-19.83969,-21.68702,44.27481,28.50588
8215,0.3989258,0.9433594,-0.1394043,9.145039,-5.282443,2.916031,28.36471
7871,0.3769531,0.9123535,-0.2109375,5.877862,-1.358779,-2.587786,28.55294
7787,0.3842773,0.9172363,-0.2248535,4.007634,-0.648855,-8.847328,28.50588
7847,0.3693848,0.9401855,-0.1867676,-0.6793893,0.5954198,-12.85496,28.45882
7795,0.296875,0.9255371,-0.1589355,3.427481,0.9923664,-14.53435,28.45882
7805,0.2658691,0.9543457,-0.1467285,2.564885,-0.1450382,-13.81679,28.45882
7775,0.2924805,0.9943848,0.07421875,18.24427,-3.442748,-16.79389,28.50588
7819,0.1396484,0.9934082,-0.3361816,11.05344,-3.656489,-14.1145,28.6
7824,0.05688477,0.9682617,-0.2265625,-0.519084,1.458015,2.877863,28.50588
7733,0.1550293,0.9458008,-0.3566895,-9.290076,0.6717557,8.244275,28.45882
7838,0.2128906,0.9587402,-0.1611328,-9.351145,5.946565,11.80916,28.50588
7791,0.2988281,0.9077148,-0.1618652,-9.412213,1.381679,7.740458,28.45882
7793,0.3342285,0.9384766,-0.1115723,-1.519084,0.3969466,4.045802,28.45882
7831,0.345459,0.947998,-0.1213379,1.557252,-1.717557,-0.2061069,28.50588
8178,0.3093262,0.9370117,-0.166748,2.290076,-1.358779,-3.251908,28.45882
7875,0.3010254,0.9301758,-0.1967773,1.282443,-0.7709923,-5.679389,28.55294
7816,0.2944336,0.9836426,-0.2001953,2.580153,-3.549618,-6.687023,28.55294
7798,0.2277832,0.9604492,-0.1933594,-2.076336,0.2290076,-4.450382,28.50588
7824,0.1896973,0.9448242,-0.2189941,-3.114504,-0.09923664,-0.6641222,28.41176
7799,0.2028809,0.958252,-0.171875,-3.335878,0.351145,3.251908,28.55294
7799,0.2429199,0.9763184,-0.109375,-0.6641222,-0.2061069,4.068702,28.50588
7783,0.2692871,0.9528809,-0.1601563,-0.3206107,-0.1526718,3.442748,28.50588
7793,0.3039551,0.9418945,-0.1865234,-0.2824428,-0.6259542,1.145038,28.55294
7793,0.3115234,0.9438477,-0.1828613,0.7862596,-0.3358779,-0.961832,28.45882
7819,0.295166,0.9526367,-0.1699219,-0.7251908,-0.9465649,-2.374046,28.55294
7833,0.2685547,0.9401855,-0.1882324,-0.480916,-1.862595,-2.21374,28.50588
7820,0.25,0.9716797,-0.1589355,0.2519084,-1.519084,-1.839695,28.45882
7829,0.2397461,0.9594727,-0.1730957,-0.5419847,-1.091603,-0.4503817,28.50588
8199,0.2414551,0.9577637,-0.1918945,-0.5038168,0.3358779,0.6946565,28.45882
7814,0.2385254,0.9475098,-0.1953125,-0.1908397,0.9847328,1.984733,28.55294
7845,0.2736816,0.96875,-0.1635742,-0.01526718,-0.389313,2.19084,28.55294
7780,0.2900391,0.9492188,-0.1574707,0.1832061,-0.6641222,0.8778625,28.50588
7821,0.2841797,0.9379883,-0.1804199,0.1679389,-0.4274809,-0.259542,28.55294
7828,0.282959,0.9438477,-0.1958008,0.9007633,-0.7175572,-0.6412213,28.41176
7816,0.2663574,0.9516602,-0.1887207,-0.7480916,-0.740458,-0.7175572,28.6
7822,0.2539063,0.9404297,-0.1940918,-0.7557252,-0.7328244,0.03053435,28.50588
7806,0.2458496,0.9443359,-0.1831055,-1.282443,-0.1755725,0.4198473,28.45882
7780,0.2609863,0.949707,-0.1542969,0.8091603,-0.9770992,0.8244275,28.50588
7808,0.2653809,0.9501953,-0.1699219,0.2061069,-0.480916,0.6412213,28.6
7816,0.2780762,0.9472656,-0.1796875,0.6412213,-0.6564885,-0.02290076,28.55294
7788,0.3251953,0.7397461,-0.4287109,117.4657,250.1298,5.167939,28.45882
8188,1.861816,0.4440918,-1.008057,63.90076,72.94656,-173.7176,28.45882
7864,0.04980469,1.597168,-0.2268066,-3.763359,-153.5496,18.66412,28.36471
7844,-0.07250977,0.8308105,-0.2092285,-8.992367,97.16794,8.091603,28.55294
7775,0.2810059,1.157715,0.1523438,-2.923664,91.72519,15.65649,28.50588
7806,0.7092285,0.9304199,0.1867676,9.862596,29.83969,-15.24428,28.55294
7812,0.2314453,0.9155273,0.07373047,13.65649,2.351145,-1.954198,28.50588
7773,0.1437988,1.014893,-0.09106445,14.18321,-20.96183,-19.03053,28.50588
7782,0.08764648,0.9931641,-0.2800293,22.05343,12.08397,-9.740458,28.55294
7807,0.1430664,0.9865723,-0.2583008,17.98473,-14.49618,3.458015,28.41176
7828,0.05981445,0.8605957,-0.3952637,-8.030535,-19.03053,10.68702,28.45882
7831,0.2768555,0.9370117,-0.3530273,-11.98473,6.061069,10.84733,28.50588
7779,0.3000488,0.9506836,-0.140625,-15.69466,3.366412,7.740458,28.45882
7827,0.2976074,0.9470215,-0.06958008,-15.16031,-17.61069,8.80916,28.45882
7847,0.2731934,0.9387207,-0.05273438,-1.854962,-2.572519,4.839694,28.45882
8175,0.171875,0.8984375,-0.2126465,26.80153,59.86259,-20.9084,28.55294
7860,0.09619141,0.9191895,-0.4169922,7.557252,62.35878,-6.061069,28.55294
7797,0.2780762,0.963623,-0.1374512,13.1145,58.03817,-8.122137,28.45882
7808,0.265625,0.934082,-0.05493164,22.06107,53.32824,-10.00763,28.45882
7773,0.215332,0.9277344,-0.1801758,25.0687,50.32824,-9.160305,28.50588
7775,0.142334,0.9111328,-0.2932129,19.36641,51.21374,-4.19084,28.41176
7752,0.1757813,0.9135742,-0.2902832,11.59542,49.35878,1.931298,28.50588
7771,0.2102051,0.8720703,-0.2805176,1.977099,54.9313,2.877863,28.55294
7768,0.2416992,1.079102,-0.1003418,13.90076,57.65649,3.992366,28.55294
7770,0.2724609,0.8896484,-0.206543,9.709924,58.63359,0.1221374,28.41176
7803,0.3000488,1.023193,-0.1608887,16.24427,54.24427,-0.1221374,28.45882
7778,0.2919922,0.885498,-0.2370605,16.58015,50.52672,-1.541985,28.45882
7785,0.2602539,0.8974609,-0.2636719,12.38168,44.49618,-1.70229,28.45882
7768,0.2180176,0.9177246,-0.2495117,9.015267,34.71756,0.480916,28.50588
8187,0.190918,0.9343262,-0.309082,-0.9083969,28.38168,6.29771,28.45882
7833,0.2131348,0.9238281,-0.2810059,-8.38168,21.41221,10.60305,28.45882
7769,0.2055664,0.9321289,-0.234375,-12.87023,17.92366,12.28244,28.55294
7814,0.2285156,0.9694824,-0.1723633,-14.16031,15.64122,14.53435,28.50588
7779,0.2875977,0.9482422,-0.09545898,-9.854961,12.75572,11.81679,28.6
7806,0.2895508,0.9421387,-0.1015625,-5.374046,12.62595,9.916031,28.55294
7770,0.3242188,0.9189453,-0.05395508,-2.145038,10.9084,8.091603,28.45882
7782,0.3574219,0.9423828,-0.05126953,5.007634,11.35878,3.145038,28.41176
7807,0.3818359,0.9401855,-0.1154785,8.725191,9.80916,-4.091603,28.45882
7771,0.338623,0.9245605,-0.1730957,9.572519,11.19084,-7.145038,28.55294
7840,0.4013672,0.9602051,-0.2734375,7.503817,3.763359,-10.78626,28.50588
7800,0.1955566,1.007568,-0.1069336,5.625954,15.80153,-4.137404,28.45882
7817,0.2353516,0.942627,-0.2900391,-0.1679389,6.08397,-5.832061,28.41176
7792,0.2539063,0.9411621,-0.08959961,-0.3816794,7.908397,-4.847328,28.50588
7847,0.2897949,0.9245605,-0.1040039,6.160306,-2.099237,-4.793893,28.50588
8055,0.7575684,1.077881,-0.08349609,68.90839,250.1298,20.90076,28.50588
7833,1.510498,0.2148438,-0.5717773,13.53435,-15.18321,-54.58015,28.50588
7842,0.3271484,-0.2324219,-1.984375,-4.251908,-10.58015,-69.15267,28.50588
7830,-0.1789551,1.164307,-0.2539063,-10.42748,63.41221,-32.20611,28.45882
7804,0.09887695,1.075195,-0.0002441406,-34.61832,16.39695,-8.931297,28.45882
7806,0.01123047,0.9992676,-0.1352539,-16.65649,11.1374,12.1374,28.50588
7793,0.1342773,1.032471,0.08081055,-5.137404,-1.137405,21.38168,28.55294
7753,0.1899414,0.9023438,-0.02099609,7.923664,21.29008,19.00763,28.55294
7786,0.2397461,0.996582,0.02905273,25.76336,8.045801,26.83206,28.50588
7770,0.2875977,0.9291992,-0.1767578,25.96183,-0.1755725,33.49618,28.6
7800,0.4165039,0.9331055,-0.3864746,17.99237,3.832061,24.29008,28.45882
7774,0.5087891,0.8850098,-0.4667969,-3.389313,-7.312977,1.908397,28.55294
7817,0.3496094,0.8728027,-0.421875,-19.33588,4.320611,-4.870229,28.55294
7828,0.3427734,0.9736328,-0.1411133,-20.45802,-5.091603,-5.770992,28.45882
8208,0.3051758,0.9624023,-0.01586914,-12.34351,-12.61069,-8.129771,28.50588
7867,0.2380371,0.9438477,-0.05322266,-0.9160305,-3.969466,-8.259542,28.6
7815,0.2197266,0.9733887,-0.04980469,8.122137,-13.53435,-5.625954,28.45882
7828,0.1938477,0.953125,-0.1872559,9.007633,-5.534351,-2.763359,28.45882
7799,0.1975098,0.9367676,-0.2653809,6.374046,-0.3206107,3.519084,28.50588
7774,0.2531738,0.9301758,-0.3366699,-0.03816794,-0.351145,5.206107,28.50588
7810,0.2919922,0.9440918,-0.2536621,-5.587786,1.022901,3.21374,28.55294
7803,0.3193359,0.9401855,-0.1689453,-6.91603,1.099237,1.229008,28.45882
7841,0.3308105,0.9394531,-0.1286621,-5.877862,-2.175573,-2.580153,28.41176
7804,0.3032227,0.9538574,-0.1208496,2.160305,-1.076336,-3.801527,28.55294
7793,0.265625,0.9541016,-0.1660156,3.610687,-2.045802,-2.717557,28.45882
7817,0.2319336,0.9501953,-0.203125,2.045802,-1.969466,-2.0,28.50588
7818,0.2348633,0.9494629,-0.2402344,0.2900764,-0.5877862,1.099237,28.50588
8227,0.298584,0.9428711,-0.1599121,0.5419847,-0.5572519,-0.2824428,28.55294
7861,0.2819824,0.9389648,-0.1955566,2.053435,-1.21374,-0.9160305,28.45882
7833,0.2788086,0.9387207,-0.2163086,0.5114504,-0.9541985,-1.053435,28.6
7813,0.2587891,0.9370117,-0.2192383,-1.282443,-0.1984733,-0.6564885,28.45882
16194,0.2592773,0.9401855,-0.204834,-3.229008,-1.038168,0.6641222,28.45882
7835,0.2744141,0.9504395,-0.1618652,-1.236641,2.251908,1.618321,28.50588
7779,-0.2277832,0.6149902,-0.4238281,88.89313,250.1298,18.9313,28.41176
7816,0.6347656,1.01709,-0.08740234,91.53435,169.1069,-31.73282,28.55294
7792,0.1669922,1.249023,0.4440918,32.51908,5.977099,-19.78626,28.50588
7789,-0.1005859,1.071533,-0.463623,1.198473,24.55725,-9.664123,28.45882
7826,-0.2431641,0.8710938,-0.5268555,19.81679,66.77863,30.48855,28.6
7769,0.237793,1.117676,-0.0007324219,6.40458,22.27481,47.83206,28.50588
7784,0.3425293,0.8510742,-0.2043457,5.427481,5.824428,45.44275,28.55294
7821,0.5148926,0.9643555,-0.1303711,-1.320611,-1.633588,16.60305,28.50588
8187,0.357666,1.008301,-0.1577148,-1.343511,1.648855,5.877862,28.45882
7836,0.4013672,0.9379883,-0.2451172,-5.419847,-1.48855,-8.007633,28.41176
7794,0.3071289,0.9084473,-0.4018555,10.71756,1.40458,-11.47328,28.45882
7791,0.2150879,0.9609375,-0.2619629,2.122137,3.755725,-4.08397,28.50588
7856,0.2478027,0.9956055,-0.1992188,-5.007634,-0.9007633,-0.1145038,28.45882
7829,0.2678223,0.9396973,-0.2324219,-6.030534,2.015267,-0.8473283,28.50588
7780,0.2993164,0.9443359,-0.1889648,-9.59542,2.221374,-4.51145,28.45882
7790,0.2802734,0.9790039,-0.1279297,-6.175572,-0.5114504,-6.938931,28.45882
7796,0.2536621,0.9545898,-0.1381836,0.9083969,1.89313,-9.137404,28.50588
7836,0.2128906,0.9624023,-0.1621094,-0.1755725,-1.832061,-1.244275,28.45882
7771,0.213623,0.9460449,-0.2150879,2.137405,-1.389313,1.847328,28.55294
7759,0.2346191,0.9560547,-0.2028809,-0.1145038,0.3435115,2.763359,28.55294
7793,0.270752,0.9470215,-0.2080078,-1.709924,0.02290076,2.519084,28.55294
7817,0.3093262,0.9316406,-0.1821289,-2.70229,-0.4198473,-0.8625955,28.50588
8144,0.3037109,0.9399414,-0.1777344,-4.610687,-2.236641,-3.748092,28.55294
7890,0.2783203,0.9477539,-0.1853027,-1.419847,0.1450382,-6.78626,28.45882
7840,0.2502441,0.9504395,-0.1992188,-2.122137,-1.854962,-4.80916,28.50588
7805,0.2380371,0.9611816,-0.1843262,-2.938931,-3.824427,-0.7709923,28.45882
7792,0.2385254,0.9562988,-0.1713867,-3.839695,-7.045802,1.061069,28.50588
7794,0.2502441,0.9492188,-0.159668,-1.725191,0.02290076,-0.007633588,28.50588
7798,0.2644043,0.9584961,-0.1606445,-0.740458,-6.824428,1.564886,28.41176
7799,0.2695313,0.9453125,-0.1674805,-1.427481,-9.38168,-0.2213741,28.41176
7786,0.2570801,0.9445801,-0.1906738,-0.8091603,-1.870229,0.3816794,28.45882
7790,0.2709961,0.9470215,-0.199707,-0.06870229,0.8167939,-1.572519,28.41176
7787,0.279541,0.942627,-0.1867676,-0.778626,3.091603,-1.458015,28.55294
7825,0.2661133,0.9567871,-0.1601563,0.8015267,3.503817,-2.694656,28.55294
7783,0.2285156,0.9663086,-0.1611328,-1.389313,1.969466,-1.625954,28.41176
7787,0.2746582,0.9443359,-0.173584,0.2824428,1.480916,-1.931298,28.50588
8184,0.2836914,0.9428711,-0.1828613,0.01526718,1.053435,-2.89313,28.45882
7842,0.2641602,0.9519043,-0.1928711,-0.01526718,1.557252,-3.366412,28.55294
7798,0.1433105,0.9123535,-0.2419434,113.3969,250.1298,-9.885496,28.41176
7834,0.9638672,0.9848633,-0.04858398,77.65649,207.0916,-52.52672,28.45882
7809,0.5129395,1.262939,0.1115723,30.80916,-22.12977,-78.33588,28.55294
7833,-0.2092285,0.6069336,-0.6362305,-30.25191,13.96183,-61.61069,28.50588
7825,-0.7792969,0.8847656,-0.3996582,-10.60305,56.86259,21.41221,28.45882
7797,0.2399902,1.058594,-0.01660156,-24.9542,0.3740458,16.22901,28.50588
7791,0.1518555,0.9287109,-0.08837891,-25.72519,-9.908397,20.0229,28.50588
7780,0.1655273,0.9897461,0.07910156,-4.458015,1.053435,26.14504,28.55294
7786,0.2453613,0.9897461,0.04711914,5.152672,1.519084,31.45802,28.55294
7768,0.2810059,0.9101563,-0.09692383,14.84733,3.641221,31.62595,28.45882
7776,0.4169922,0.9714355,-0.1303711,20.71756,3.526718,4.717557,28.50588
7787,0.3232422,0.9382324,-0.265625,15.54962,0.5954198,-0.351145,28.45882
8222,0.2888184,0.9375,-0.1889648,-12.1374,0.6335878,-4.076336,28.55294
7887,0.2834473,0.954834,-0.1318359,-7.931298,-2.587786,-5.022901,28.6
7845,0.2260742,0.9682617,-0.119873,-2.435115,-1.641221,-4.70229,28.45882
7808,0.1914063,0.970459,-0.1335449,0.08396947,-1.183206,-1.877863,28.50588
7794,0.1804199,0.9631348,-0.1518555,1.022901,-0.5572519,1.053435,28.45882
7811,0.2353516,0.9560547,-0.1782227,0.8778625,-0.8167939,1.061069,28.55294
7841,0.2587891,0.9526367,-0.1933594,0.5038168,-0.8473283,-0.6183206,28.45882
7823,0.263916,0.9458008,-0.2077637,-0.7251908,-1.137405,-1.335878,28.41176
7814,0.2390137,0.953125,-0.1987305,-1.740458,-0.8244275,-1.129771,28.45882
7827,0.2268066,0.9619141,-0.1936035,-3.503817,-0.6335878,-0.2824428,28.41176
7805,0.2385254,0.958252,-0.1679688,-3.0,-0.07633588,0.3206107,28.45882
7812,0.2529297,0.9484863,-0.1477051,-2.267176,-0.7633588,-0.4885496,28.50588
7801,0.2529297,0.9567871,-0.1484375,-0.3053435,-1.129771,-1.389313,28.45882
7805,0.2409668,0.9624023,-0.168457,-0.05343511,-0.9541985,-1.152672,28.50588
8187,0.2199707,0.9516602,-0.1787109,-0.7709923,-0.6335878,0.480916,28.45882
7837,0.2380371,0.9541016,-0.1872559,0.0610687,0.1755725,0.6564885,28.55294
7852,0.2573242,0.9511719,-0.1831055,-0.4580153,-1.022901,-0.1374046,28.50588
7822,0.2687988,0.9538574,-0.1687012,-1.145038,-0.610687,-0.7709923,28.55294
7807,0.2568359,0.9575195,-0.1818848,-0.5038168,-0.8015267,-1.419847,28.41176
7849,0.2438965,0.9494629,-0.1894531,-0.8396947,-0.4580153,-1.854962,28.45882
7811,0.2473145,0.9501953,-0.1811523,-1.305344,-0.2824428,-2.152672,28.55294
16216,0.2475586,0.9562988,-0.1738281,-1.267176,-0.1450382,-2.580153,28.45882
7840,0.2412109,0.9570313,-0.1721191,-2.022901,-0.3816794,-2.923664,28.50588
7830,-0.0004882813,1.057861,-0.3908691,54.38168,250.1298,-25.82443,28.45882
7745,0.5024414,0.5290527,0.4353027,46.64885,250.1298,-66.80153,28.50588
7838,0.5708008,1.031006,-0.2290039,-0.7251908,-1.740458,-59.68702,28.55294
7836,-0.1384277,0.9960938,-0.5837402,-13.9084,31.80916,-42.39695,28.50588
8191,-0.4255371,0.826416,-0.3361816,-1.59542,37.9542,-2.0,28.55294
7850,-0.03149414,0.9997559,-0.1896973,-11.35878,11.35114,14.23664,28.6
7815,0.1025391,0.9799805,-0.07788086,-13.27481,-15.69466,23.77863,28.55294
7788,0.1132813,0.9560547,-0.09887695,-12.0916,-0.9083969,26.15267,28.55294
7790,0.1855469,0.9726563,-0.05419922,-4.244275,1.312977,28.17557,28.50588
7819,0.3586426,0.9897461,-0.01611328,0.1145038,0.5572519,3.48855,28.45882
7844,0.2675781,0.9509277,-0.1008301,5.091603,-0.2213741,-0.3129771,28.45882
7775,0.2231445,0.9711914,-0.1535645,9.732824,-0.5496183,-2.916031,28.45882
7803,0.1635742,0.9770508,-0.1853027,10.19084,1.221374,-2.381679,28.41176
7795,0.1650391,0.9567871,-0.2365723,2.900763,0.5801527,-1.725191,28.50588
7830,0.1616211,0.9587402,-0.2419434,-0.7633588,-0.4351145,-0.3587786,28.55294
7791,0.1804199,0.9621582,-0.2185059,-4.70229,0.07633588,-0.3664122,28.50588
7794,0.192627,0.9699707,-0.1872559,-4.633588,-0.2900764,-1.381679,28.55294
7837,0.1804199,0.9689941,-0.1364746,-6.458015,-0.7862596,-1.274809,28.41176
8191,0.1728516,0.9633789,-0.1149902,-2.549618,-0.5648855,-0.7557252,28.45882
7842,0.1791992,0.980957,-0.1010742,0.03816794,-0.7938931,-0.2442748,28.55294
7807,0.1765137,0.9677734,-0.1494141,0.09923664,-0.9007633,-0.7938931,28.41176
7807,0.1694336,0.9663086,-0.1599121,1.618321,-1.053435,-1.10687,28.45882
7818,0.1716309,0.9699707,-0.1760254,1.389313,-0.6641222,-0.6793893,28.50588
7795,0.1755371,0.9626465,-0.1730957,-0.4198473,-0.778626,-0.389313,28.45882
7806,0.1716309,0.9592285,-0.1689453,-1.015267,-0.8549618,-0.6793893,28.55294
7811,0.1743164,0.9658203,-0.1564941,-1.900763,-0.8244275,-0.5954198,28.41176
7827,0.1787109,0.9663086,-0.1506348,-1.091603,-0.3129771,-1.351145,28.55294
7825,0.1779785,0.9741211,-0.1437988,-0.7480916,-0.5572519,-1.343511,28.50588
7808,0.1796875,0.9711914,-0.1618652,0.1603053,-0.5572519,-0.7709923,28.6
7820,0.175293,0.9685059,-0.1452637,0.8549618,-1.022901,-0.08396947,28.45882
7810,0.175293,0.965332,-0.1706543,-0.9160305,-0.740458,-0.3206107,28.41176
8199,0.1804199,0.9645996,-0.159668,0.9923664,-0.5343512,-0.03053435,28.45882
7890,0.1757813,0.9655762,-0.1582031,-0.6717557,-0.06870229,-0.4274809,28.45882
7812,0.1748047,0.9677734,-0.1550293,-0.2213741,-0.2137404,0.2748091,28.45882
7843,0.1796875,0.9714355,-0.1540527,-0.1450382,-0.1068702,-0.01526718,28.50588
7810,0.1896973,0.9638672,-0.140625,-0.8396947,-0.03816794,-0.5801527,28.55294
7770,0.1787109,0.96875,-0.1599121,0.2824428,-0.4732824,-0.8015267,28.55294
7763,-0.07177734,1.047363,-0.1796875,104.7405,250.1298,32.46565,28.45882
7786,1.140137,0.7585449,-0.121582,62.40458,221.8321,-40.25191,28.45882
7816,0.5083008,1.032471,-0.270752,33.75573,-9.870229,-45.47328,28.50588
7832,-0.2067871,1.160645,-0.4746094,2.458015,53.26717,-33.64885,28.41176
7829,-0.5107422,0.8764648,-0.3479004,3.748092,15.9542,12.80916,28.50588
7823,-0.05249023,0.9655762,-0.2336426,-6.40458,-0.1068702,18.64122,28.45882
7791,0.05102539,0.9541016,-0.1489258,-9.938931,-8.412213,42.14504,28.45882
7772,0.239502,0.9631348,-0.1313477,-8.946565,3.48855,28.03053,28.50588
8178,0.3540039,0.9492188,-0.1047363,-3.068702,-3.419847,6.709924,28.45882
7855,0.4145508,0.947998,-0.06640625,2.48855,-2.870229,-2.374046,28.45882
7816,0.2946777,0.9638672,-0.1193848,4.832061,0.259542,-8.305344,28.41176
7774,0.1396484,0.967041,-0.1630859,4.0,0.05343511,-5.267176,28.45882
7779,0.09179688,0.9753418,-0.1816406,0.6717557,-1.267176,0.6259542,28.55294
7791,0.1269531,0.9753418,-0.208252,0.4427481,0.2290076,4.08397,28.50588
7801,0.2219238,0.9641113,-0.1872559,-2.89313,-0.4274809,1.603053,28.45882
7837,0.2624512,0.9501953,-0.1577148,-3.320611,-0.1068702,-0.6946565,28.6
7825,0.2255859,0.9628906,-0.1398926,-2.343511,-1.083969,-3.770992,28.50588
7835,0.171875,0.9873047,-0.1364746,0.7328244,-1.137405,-1.770992,28.45882
7848,0.1721191,0.9577637,-0.2141113,-0.9312977,-0.6717557,-0.6564885,28.50588
7794,0.2128906,0.9641113,-0.2392578,-5.160306,0.8091603,-2.51145,28.55294
7824,0.2585449,0.9594727,-0.2180176,-9.992367,1.48855,-6.946565,28.50588
7793,0.2800293,0.9516602,-0.1638184,-11.32824,-7.572519,-9.175572,28.45882
8225,0.1779785,0.9714355,-0.185791,-11.64122,-15.48092,-6.40458,28.41176
7858,0.140625,0.9699707,-0.1933594,-15.85496,-19.30534,-5.78626,28.45882
7816,0.1542969,0.9411621,-0.1987305,-21.03053,-23.51908,-6.40458,28.45882
7818,0.1318359,0.9084473,-0.03955078,-27.13741,-19.60305,-4.496183,28.50588
7800,0.07324219,1.00293,0.2497559,-10.19084,-14.78626,1.099237,28.45882
7789,0.01171875,1.007324,0.3039551,12.76336,-8.015267,10.03053,28.45882
7777,0.06811523,0.6313477,-0.03271484,42.60305,1.0,13.19084,28.50588
7799,0.3642578,0.9367676,0.2353516,60.43512,-10.18321,7.732824,28.50588
7797,0.4182129,0.949707,-0.1726074,62.66412,-6.160306,-3.061069,28.50588
7770,0.4086914,1.138428,-0.8781738,66.19847,2.503817,-10.0687,28.50588
7748,0.3417969,0.9257813,-0.4641113,45.80153,3.984733,-18.9313,28.45882
7828,0.07983398,1.108887,-0.6225586,7.122138,-0.1679389,-17.87023,28.41176
7819,-0.0246582,0.9831543,-0.3493652,-29.70229,6.045802,1.610687,28.45882
7819,0.1101074,1.032471,-0.02685547,-30.45802,-6.267176,6.984733,28.50588
8193,0.1081543,0.9680176,0.05200195,-10.64886,-0.7557252,9.893129,28.36471
7846,0.2670898,1.005371,0.08056641,7.290076,-6.229008,9.267176,28.55294
7835,0.2697754,0.9584961,-0.06298828,17.90076,-1.977099,4.458015,28.50588
7797,0.2714844,0.9160156,-0.2446289,16.87786,-1.442748,-2.160305,28.41176
7791,0.2438965,0.9069824,-0.3735352,9.419847,0.8778625,-5.59542,28.50588
7789,0.1547852,0.9274902,-0.3557129,-2.305344,0.1908397,-4.900764,28.55294
7820,0.1040039,0.9572754,-0.2416992,-11.0458,1.167939,-0.4198473,28.6
7794,0.1271973,0.9804688,-0.1220703,-12.22901,1.198473,2.633588,28.45882
7796,0.1982422,0.9667969,-0.07983398,-5.80916,-1.007634,3.022901,28.45882
7784,0.2368164,0.9743652,-0.07470703,2.129771,-1.740458,0.007633588,28.41176
7838,0.2473145,0.9631348,-0.1743164,5.328244,-1.625954,-2.053435,28.45882
7797,0.1791992,0.9802246,-0.203125,3.0,-1.0,-1.984733,28.41176
7833,0.135498,0.9572754,-0.2468262,-0.9160305,-0.3816794,-0.7557252,28.55294
7806,0.1542969,0.9685059,-0.220459,-4.435114,0.3053435,0.832061,28.41176
8208,0.1723633,0.9787598,-0.2111816,0.832061,-0.3664122,-0.3282443,28.50588
7902,0.1540527,0.9572754,-0.2270508,-0.7480916,-0.2442748,0.4351145,28.45882
7823,0.1787109,0.9667969,-0.197998,-2.007634,-0.7099237,-0.4198473,28.45882
7842,0.192627,0.970459,-0.170166,-1.717557,-0.5801527,-0.7328244,28.45882
7826,0.1965332,0.9604492,-0.1601563,-0.7022901,-0.870229,-0.7480916,28.50588
7807,0.1738281,0.9580078,-0.185791,0.7175572,0.1755725,-0.3358779,28.45882
7773,0.1662598,0.9619141,-0.1921387,1.450382,-1.480916,0.0610687,28.45882
7795,0.1762695,0.970459,-0.1987305,-0.8396947,-0.648855,0.832061,28.50588
7841,0.1882324,0.9499512,-0.1967773,-2.732824,0.6259542,-0.4656488,28.50588
7846,0.1955566,0.9628906,-0.1782227,-1.580153,-0.0610687,-0.5343512,28.45882
7839,0.1865234,0.9760742,-0.1489258,0.4427481,-0.8244275,0.04580153,28.50588
7836,0.1652832,0.9594727,-0.1987305,0.02290076,-0.3053435,0.3206107,28.45882
7801,0.1748047,0.887207,-0.2272949,0.6183206,0.4122138,-0.6259542,28.50588
8061,0.439209,0.9682617,0.02441406,76.21374,250.1298,-8.137404,28.41176
7838,0.6879883,0.8010254,-0.1364746,79.61069,153.5649,-33.03053,28.50588
7787,0.1357422,0.8273926,-0.609375,57.25954,38.51908,-33.85496,28.45882
7801,0.07592773,1.084473,-0.4267578,27.31298,38.80916,-30.81679,28.50588
7813,-0.135498,0.9233398,-0.4758301,11.72519,64.05344,-8.862596,28.45882
7798,0.1032715,1.014404,-0.3139648,-1.496183,27.63359,-1.770992,28.45882
7819,0.114502,1.005615,-0.1420898,-14.83206,-1.480916,7.358778,28.55294
7782,0.144043,0.9802246,-0.04296875,-5.763359,-2.061069,9.442748,28.41176
7784,0.2075195,1.013672,0.01098633,4.038168,-5.145038,12.25954,28.50588
7791,0.1867676,0.9819336,-0.08862305,11.50382,-0.1755725,7.91603,28.55294
7752,0.2260742,0.9470215,-0.1953125,8.435115,-1.992366,7.473282,28.45882
7795,0.2634277,0.9594727,-0.2197266,6.068702,-0.3053435,2.038168,28.50588
7837,0.2011719,0.9423828,-0.3024902,-3.954198,-0.2671756,-1.061069,28.45882
7852,0.203125,0.9584961,-0.2209473,-7.473282,-0.3206107,-1.473282,28.50588
8175,0.1694336,0.9897461,-0.1101074,-6.08397,0.1374046,-1.900763,28.41176
7840,0.1477051,0.9763184,-0.1794434,-3.312977,-0.7862596,0.7709923,28.50588
7835,0.175293,1.078613,-0.07568359,1.916031,-0.08396947,-0.1603053,28.50588
7819,0.2102051,0.9658203,-0.1960449,0.04580153,-2.519084,-0.740458,28.45882
7834,0.1882324,0.9748535,-0.2207031,-2.282443,-0.5877862,-1.503817,28.41176
7832,0.1862793,0.9658203,-0.1894531,-4.931298,0.03816794,-1.748092,28.45882
7818,0.1933594,0.918457,-0.2736816,-8.572519,-2.358779,-0.4656488,28.50588
7820,0.1984863,0.9699707,-0.1398926,-3.10687,0.1068702,-0.9312977,28.45882
7817,0.1916504,0.9436035,-0.1044922,-1.259542,-1.137405,-1.557252,28.55294
7828,0.1674805,0.9550781,-0.1325684,-0.06870229,-1.152672,-1.641221,28.45882
7831,0.1794434,0.9555664,-0.1533203,1.465649,-1.328244,-1.526718,28.50588
7784,0.1782227,0.9750977,-0.1899414,-0.1221374,-0.7862596,-1.083969,28.55294
7836,0.1945801,0.9611816,-0.1762695,-3.0,-2.29771,-0.7175572,28.6
7808,0.1950684,0.9729004,-0.152832,0.07633588,-0.8854962,-1.320611,28.50588
8196,0.177002,0.9846191,-0.1357422,-0.4122138,-1.732824,-1.427481,28.45882
7880,0.1708984,0.9685059,-0.1435547,2.496183,0.01526718,-0.2748091,28.55294
7832,0.1767578,0.940918,-0.1872559,0.7557252,-1.954198,-0.3969466,28.55294
7790,0.1611328,0.9445801,-0.1853027,0.7328244,0.8091603,0.6793893,28.50588
7823,0.168457,0.9943848,-0.1489258,-1.351145,-0.5419847,0.7862596,28.45882
7801,0.1591797,0.9572754,-0.1396484,-0.8167939,0.8015267,0.4503817,28.50588
7769,0.1567383,0.967041,-0.1611328,1.251908,1.89313,0.7709923,28.45882
7755,0.1755371,1.020508,-0.1591797,0.03816794,5.061069,2.832061,28.45882
7754,0.135498,0.996582,-0.1533203,2.748092,14.43511,1.206107,28.50588
7789,0.06567383,1.000488,-0.1828613,5.183206,38.84733,7.38168,28.50588
7803,0.2897949,0.9902344,-0.06323242,4.977099,48.9771,3.557252,28.45882
7800,0.4179688,0.9213867,-0.1196289,2.29771,4.885496,-5.183206,28.6
7775,0.1716309,0.9504395,-0.2023926,3.549618,1.977099,-4.366412,28.41176
7818,0.1901855,0.9604492,-0.2097168,4.29771,2.748092,-4.389313,28.36471
8203,0.2807617,0.9855957,-0.06616211,-2.877863,-4.679389,0.7938931,28.45882
16245,0.2561035,0.9594727,-0.1064453,0.09160305,0.1374046,-7.473282,28.50588
7853,0.1936035,0.9550781,-0.145752,3.580153,-4.267176,-7.557252,28.50588
7833,0.08740234,0.9587402,-0.1931152,-0.1908397,-2.267176,-3.519084,28.55294
7809,0.1062012,0.949707,-0.2490234,2.755725,-2.312977,1.625954,28.50588
7845,0.1350098,0.9338379,-0.135498,-1.832061,1.778626,3.671756,28.55294
7802,0.2453613,0.9377441,-0.1459961,-6.312977,-7.969466,2.312977,28.55294
7837,0.1928711,0.9504395,-0.2060547,-0.8015267,-5.89313,-1.320611,28.55294
7790,0.213623,0.9794922,-0.1147461,4.129771,-4.70229,-3.137405,28.45882
7812,0.2375488,0.970459,-0.1306152,-3.48855,-0.4351145,-8.236641,28.50588
7800,0.1682129,0.986084,-0.1586914,13.44275,-2.816794,-4.847328,28.45882
7841,0.151123,0.9228516,-0.2333984,10.33588,-8.977099,-0.8549618,28.50588
7838,0.1601563,0.8674316,-0.119873,4.587786,-4.541985,-11.67176,28.41176
7807,0.3029785,1.042725,-0.1245117,-2.122137,-6.274809,-2.519084,28.6
8210,0.4875488,1.063477,-0.1831055,48.91603,1.442748,20.01527,28.55294
7807,0.239502,1.003418,-0.2497559,90.64122,20.94657,16.49618,28.41176
7798,0.3684082,0.989502,-0.4677734,53.74046,11.21374,0.6564885,28.45882
7816,0.05029297,0.927002,-0.3369141,17.43511,-3.007634,29.43511,28.50588
7820,-0.03100586,1.067627,-0.1291504,12.89313,-5.801527,-4.175572,28.45882
7792,0.04418945,1.000732,-0.130127,19.81679,5.244275,-1.70229,28.50588
7807,0.2199707,0.9370117,-0.1730957,3.236641,-1.160305,5.824428,28.50588
7811,0.2810059,0.949707,-0.2287598,4.305344,-5.778626,0.03053435,28.45882
7790,0.2658691,0.951416,-0.2697754,2.938931,-3.221374,-5.274809,28.50588
7833,0.2258301,0.9370117,-0.3249512,-0.9923664,-4.519084,-9.496183,28.45882
7821,0.184082,0.9580078,-0.2512207,-15.16794,-5.328244,1.580153,28.55294
7796,0.08984375,0.9941406,-0.1894531,-74.65649,-12.39695,37.89313,28.50588
7840,0.109375,1.055176,-0.244873,-87.35878,-16.03053,46.71756,28.50588
7810,0.1298828,0.8388672,-0.1350098,-59.61069,0.6335878,-13.81679,28.50588
8160,0.05004883,0.9521484,-0.2436523,-20.16031,3.580153,1.59542,28.41176
7861,0.06396484,1.059082,-0.2145996,-19.0687,-3.40458,33.07634,28.45882
7823,0.03735352,1.089111,-0.1328125,-13.77863,7.984733,13.43511,28.50588
7834,0.2370605,0.9255371,-0.215332,-19.45802,6.938931,-6.091603,28.45882
7810,0.2814941,0.923584,-0.3566895,-14.77863,7.038168,4.694656,28.50588
7821,0.2290039,0.8520508,-0.4660645,-27.0687,15.14504,-10.58015,28.45882
7842,0.1972656,0.994873,-0.2246094,-44.93893,45.37405,16.60305,28.50588
7808,0.6774902,1.024658,0.09057617,-46.50382,-17.67175,6.648855,28.45882
7812,0.2404785,0.8874512,0.1010742,-7.221374,2.351145,4.564886,28.41176
7771,0.2971191,0.940918,0.05566406,4.412214,-0.7022901,1.80916,28.50588
7777,0.2587891,0.9499512,-0.04638672,4.51145,-5.389313,0.5572519,28.41176
7820,0.3288574,0.9169922,-0.02905273,7.236641,-3.083969,-4.709924,28.55294
7796,0.3439941,0.9570313,0.009765625,17.54198,-3.603053,-13.40458,28.50588
7810,0.2834473,0.9580078,-0.05688477,20.41221,-6.480916,-16.81679,28.55294
8230,0.1928711,0.947998,-0.1218262,27.59542,-2.687023,-16.67175,28.50588
7843,0.1740723,0.9614258,-0.2275391,27.83969,-3.541985,-15.05344,28.6
7825,0.1254883,0.954834,-0.2893066,18.35878,-2.931298,-11.94656,28.55294
7847,-0.01904297,0.9501953,-0.2763672,17.59542,2.206107,-5.10687,28.45882
7810,0.04150391,1.044922,-0.3789063,-8.648855,2.526718,2.938931,28.41176
7797,0.1325684,0.9365234,-0.2224121,-21.91603,2.847328,6.40458,28.45882
7797,0.2463379,0.9353027,-0.06518555,-15.25954,-4.320611,2.618321,28.45882
7784,0.2119141,0.986084,0.04736328,-1.038168,-2.0,1.923664,28.45882
7794,0.2060547,0.9873047,-0.06616211,7.641222,-2.610687,0.7557252,28.45882
7803,0.1904297,0.9587402,-0.130127,8.717557,-2.152672,0.8396947,28.55294
7814,0.1516113,0.954834,-0.2429199,4.549618,0.1068702,0.4503817,28.50588
7782,0.1586914,0.9230957,-0.2741699,-5.328244,1.51145,0.4198473,28.41176
7837,0.2077637,0.9245605,-0.1923828,-6.778626,1.114504,-0.7862596,28.55294
7806,0.1975098,0.963623,-0.1120605,-4.244275,0.4274809,-1.076336,28.50588
8217,0.1887207,0.9406738,-0.1989746,-1.083969,-0.480916,-0.02290076,28.50588
7837,0.204834,0.9545898,-0.184082,-2.923664,0.351145,-0.4122138,28.50588
7789,1.487549,0.777832,-0.04736328,90.82442,250.1298,-18.08397,28.45882
7799,1.200684,1.062256,0.05126953,55.80153,74.80916,-103.8397,28.50588
7826,-0.1516113,0.8859863,-0.392334,48.45802,52.61069,20.48855,28.45882
7786,0.04394531,1.066406,-0.1037598,-8.083969,32.31298,7.91603,28.50588
7813,-0.08569336,0.9702148,-0.1948242,26.79389,41.40458,-17.91603,28.45882
7768,0.01464844,1.02832,-0.2229004,9.801527,28.25191,2.832061,28.45882
7841,0.1223145,0.9394531,-0.2026367,-7.78626,5.908397,7.160306,28.50588
7816,0.2041016,0.8806152,-0.1057129,-7.053435,4.503817,9.824428,28.45882
7807,0.2106934,0.8383789,-0.1210938,6.274809,-3.320611,11.87786,28.50588
7819,0.1137695,1.037109,0.09594727,-6.061069,-1.755725,0.4503817,28.50588
7792,0.114502,0.8366699,-0.2072754,5.908397,6.839694,0.7862596,28.36471
7811,0.1748047,0.9455566,-0.1665039,6.244275,-1.114504,1.442748,28.50588
8170,0.2097168,1.000488,-0.1459961,3.816794,-1.29771,0.6259542,28.45882
7851,0.2026367,0.9770508,-0.1428223,1.259542,0.7557252,0.5877862,28.45882
7826,0.1677246,0.9633789,-0.1679688,-3.671756,-0.1832061,-0.0610687,28.41176
7808,0.1821289,0.9519043,-0.1340332,-1.450382,-0.5648855,0.4961832,28.45882
16193,0.1567383,0.9619141,-0.1311035,1.885496,-0.4961832,0.9007633,28.45882
7848,0.1894531,0.9624023,-0.1328125,1.030534,-0.4961832,-0.2977099,28.55294
7792,0.2119141,0.9611816,-0.166748,0.07633588,-0.5267176,-0.5954198,28.55294
7815,0.1940918,0.9641113,-0.1591797,-2.885496,-0.3969466,-1.923664,28.41176
7837,0.1516113,0.8693848,-0.3063965,-4.51145,-0.5267176,2.145038,28.55294
7843,0.2399902,0.9663086,-0.04833984,-0.5877862,-1.40458,-1.40458,28.41176
7793,0.2033691,0.9489746,-0.1174316,-6.625954,-0.4198473,0.9083969,28.45882
7809,0.1999512,0.9604492,-0.1237793,-0.389313,-0.1145038,-0.4045802,28.50588
7819,0.1955566,0.9787598,-0.1245117,2.129771,-1.374046,-1.351145,28.55294
8183,0.1777344,0.972168,-0.1164551,-2.091603,-0.2442748,-2.229008,28.50588
7885,0.1655273,0.9484863,-0.1352539,-4.648855,-0.03053435,-3.450382,28.41176
7850,0.175293,0.9648438,-0.1359863,-2.526718,-0.778626,-1.725191,28.36471
7836,0.1960449,0.9650879,-0.1171875,-0.6946565,-0.6564885,-0.8854962,28.55294
7820,0.1708984,0.987793,-0.1157227,1.59542,-1.412214,-0.2137404,28.45882
7800,0.1774902,0.9658203,-0.1245117,0.1450382,-0.351145,-0.5114504,28.50588
7826,0.1845703,0.9753418,-0.1259766,0.0,-0.5954198,0.3129771,28.50588
7805,0.175293,0.9716797,-0.1362305,0.04580153,-0.6564885,0.7709923,28.45882
7801,0.1787109,0.9572754,-0.1291504,0.2290076,0.2061069,0.5496183,28.6
7843,0.185791,0.9880371,-0.1201172,-1.725191,-5.045802,-1.618321,28.41176
7786,0.1130371,0.9726563,0.2788086,-12.77863,-116.9542,7.854962,28.45882
7801,-0.111084,1.081055,-0.1958008,9.511451,-71.14503,-10.61832,28.55294
7807,-0.390625,0.9082031,0.09130859,21.54962,-25.61832,70.40458,28.50588
7788,0.1962891,0.9829102,-0.1064453,40.67176,0.07633588,95.47328,28.50588
8187,0.6750488,0.873291,-0.3881836,12.0229,-11.19084,9.854961,28.50588
7828,0.4248047,0.9399414,-0.3999023,0.9389313,1.450382,-8.541985,28.55294
7819,0.2949219,0.9255371,-0.234375,-11.51145,2.916031,-16.69466,28.50588
7838,0.1582031,0.9716797,-0.05224609,-12.00763,-2.0,-15.37405,28.45882
7792,0.1225586,1.038086,-0.04589844,-0.8167939,3.381679,-5.992366,28.45882
7793,0.2265625,0.9675293,-0.1191406,3.267176,4.10687,-5.450382,28.55294
7805,0.2529297,0.9619141,-0.203125,2.366412,11.24428,-8.854961,28.41176
7807,0.2575684,0.949707,-0.1767578,-1.763359,20.68702,-13.90076,28.41176
7817,0.2319336,0.9401855,-0.1428223,0.9541985,40.48092,-17.40458,28.45882
7823,0.2158203,0.987793,-0.09423828,4.022901,31.03817,-17.44275,28.41176
7829,0.1809082,0.9282227,-0.1074219,-1.061069,18.71756,-16.54962,28.45882
7812,0.08569336,1.036865,-0.07861328,7.984733,-7.580153,-3.671756,28.50588
7832,-0.0612793,1.041016,-0.1281738,9.396947,-1.21374,10.06107,28.45882
7823,0.1228027,0.9570313,-0.2255859,4.343512,-1.824428,13.87786,28.50588
8208,0.3430176,0.9404297,-0.1296387,-10.40458,0.06870229,-12.66412,28.50588
7876,0.2021484,0.9882813,-0.05786133,-5.29771,1.618321,-13.29771,28.41176
7786,0.1623535,0.9746094,-0.0546875,-1.015267,2.030534,-10.53435,28.45882
7786,0.5712891,0.9475098,-0.2836914,109.2366,250.1298,-32.61832,28.55294
7839,1.008545,1.362305,-0.3520508,37.17557,26.19847,-36.32061,28.45882
7823,-0.03833008,0.9973145,-0.5993652,7.061069,26.38168,-30.50382,28.50588
7793,-0.09741211,1.046387,-0.2556152,-13.21374,59.56488,4.992366,28.45882
7801,-0.0715332,1.040283,-0.09838867,7.312977,40.70992,15.48092,28.50588
7793,0.1066895,0.9509277,-0.1105957,-6.633588,26.80916,17.16794,28.45882
7778,0.1816406,0.9506836,-0.06591797,-1.412214,7.854962,23.22901,28.50588
7798,0.3652344,0.9394531,-0.06713867,-0.6259542,0.7557252,7.091603,28.45882
7744,0.2683105,0.9550781,-0.1066895,4.793893,0.0,5.427481,28.45882
7791,0.284668,0.9467773,-0.142334,4.900764,-1.145038,0.4122138,28.45882
7850,0.260498,0.9726563,-0.1455078,4.839694,-0.7633588,-3.152672,28.50588
8181,0.2116699,0.9775391,-0.157959,2.198473,-0.648855,-2.083969,28.45882
7829,0.1728516,0.9462891,-0.1518555,0.1145038,0.09923664,-0.4274809,28.50588
7800,0.1794434,0.9648438,-0.126709,-1.259542,-1.618321,0.4274809,28.45882
7808,0.1755371,0.9870605,-0.1147461,0.6717557,-0.5267176,2.053435,28.45882
7801,0.1774902,0.9953613,-0.1333008,1.770992,1.351145,1.633588,28.45882
7790,0.217041,0.9621582,-0.1442871,-0.351145,1.129771,0.5496183,28.41176
7796,0.2192383,0.9841309,-0.1467285,-0.7175572,-1.198473,0.3358779,28.50588
7792,0.2116699,0.9631348,-0.126709,-3.015267,-0.5267176,-0.9083969,28.55294
7830,0.1896973,0.9589844,-0.1286621,-1.625954,-0.6641222,-1.099237,28.50588
7757,0.1872559,0.9641113,-0.1313477,-1.603053,-0.2900764,-0.6870229,28.45882
7784,0.2155762,0.9594727,-0.1157227,-3.068702,-0.870229,-0.4732824,28.45882
7846,0.1862793,0.9504395,-0.1506348,-4.61832,0.4122138,-4.358778,28.50588
7793,0.1933594,0.9765625,-0.1506348,-3.51145,-0.02290076,-2.381679,28.45882
7798,0.2087402,0.9626465,-0.1193848,-3.068702,-1.19084,-2.908397,28.45882
8154,0.1804199,0.9614258,-0.1308594,-3.641221,-1.374046,-1.877863,28.45882
7885,0.1813965,0.9790039,-0.1157227,-1.389313,-0.129771,-1.320611,28.50588
7814,0.1965332,0.9675293,-0.114502,-0.8854962,-0.4351145,-1.053435,28.50588
7781,0.1875,0.958252,-0.1179199,-0.4580153,0.6641222,-0.1221374,28.6
7824,0.2109375,0.9626465,-0.114502,0.3587786,-0.6793893,-1.351145,28.45882
7868,0.1940918,0.9694824,-0.1203613,0.5343512,-0.7099237,-1.007634,28.50588
7831,0.1801758,0.9626465,-0.1411133,0.5496183,-0.7099237,-0.3816794,28.55294
7807,0.3461914,1.085205,0.01464844,37.56488,250.1298,-34.82443,28.45882
7787,0.6550293,0.9902344,-0.09106445,5.183206,56.72519,-28.65649,28.36471
7819,-0.006835938,0.8173828,-0.3813477,-2.801527,61.06107,-22.00763,28.50588
7792,-0.1403809,0.9157715,-0.2402344,11.65649,76.06107,-6.80916,28.45882
7764,-0.07861328,1.04834,-0.1750488,8.671756,77.9771,-5.961832,28.45882
7801,0.01708984,0.7519531,-0.1367188,-4.534351,34.90076,0.4045802,28.50588
7767,0.0637207,1.109375,0.02270508,5.076336,-1.946565,17.74046,28.45882
8183,0.01879883,1.073975,-0.07324219,14.32061,6.793893,6.183206,28.55294
7831,0.1005859,0.947998,-0.1547852,3.923664,-1.824428,9.534351,28.36471
7817,0.1303711,1.022949,-0.1567383,7.526718,-1.160305,16.79389,28.45882
7785,0.1345215,1.005127,-0.1970215,11.61069,2.961832,13.83206,28.55294
7806,0.1191406,0.954834,-0.2138672,-3.312977,0.07633588,6.48855,28.50588
7841,0.1362305,0.9699707,-0.1550293,-0.648855,-0.6641222,2.022901,28.45882
7826,0.1123047,0.9575195,-0.1259766,-0.9770992,0.01526718,-1.198473,28.41176
7805,0.1101074,0.9929199,-0.1149902,-0.9312977,-1.80916,2.21374,28.45882
7841,0.1416016,0.9692383,-0.09472656,-0.1068702,-0.2900764,-1.572519,28.41176
7797,0.1523438,0.951416,-0.1420898,0.1908397,1.526718,-11.10687,28.45882
7771,0.08276367,1.026123,-0.2888184,4.038168,-0.6412213,1.564886,28.55294
7831,0.03735352,1.025146,-0.2060547,-1.259542,-1.641221,0.1526718,28.6
7806,0.06347656,0.9726563,-0.1774902,-8.893129,-1.290076,1.381679,28.50588
7815,0.114502,0.942627,-0.1450195,-10.40458,-0.7938931,0.5038168,28.36471
8189,0.09594727,0.9741211,-0.1486816,-0.9312977,-1.099237,-8.038168,28.50588
7869,0.09057617,0.9645996,-0.1672363,-1.832061,-0.740458,-1.717557,28.41176
7828,0.1057129,0.9658203,-0.1491699,-4.328244,-0.9770992,-4.656488,28.41176
7824,0.1096191,0.9768066,-0.1342773,-2.19084,0.3053435,-1.374046,28.55294
7826,0.1315918,0.9777832,-0.1262207,-1.473282,-1.274809,-0.6259542,28.41176
7805,0.1008301,0.979248,-0.1230469,1.045802,-0.1374046,-0.7251908,28.50588
7766,0.1008301,0.9841309,-0.1345215,0.7633588,-0.4656488,-0.1068702,28.45882
7805,0.08154297,0.9650879,-0.1499023,-0.2748091,0.1832061,-0.1374046,28.36471
7782,0.1203613,0.9814453,-0.1540527,-0.8473283,-0.9770992,1.022901,28.45882
7805,0.1130371,0.9919434,-0.1413574,0.5267176,0.2137404,-0.007633588,28.45882
7777,0.1125488,0.9694824,-0.1508789,0.05343511,-0.2519084,0.5572519,28.41176
7795,0.09667969,0.979248,-0.1362305,0.9694656,-0.2900764,-0.2213741,28.50588
7797,0.08935547,0.9836426,-0.1328125,-0.351145,-0.961832,0.8854962,28.55294
8166,0.1047363,0.9746094,-0.1472168,1.267176,0.0610687,0.6335878,28.50588
7861,0.09863281,0.9741211,-0.1513672,0.740458,-0.7175572,3.503817,28.45882
7837,0.1137695,0.9785156,-0.1503906,-0.5877862,-0.4045802,0.3206107,28.45882
7805,0.1225586,0.954834,-0.1472168,0.3358779,-0.1145038,-0.09923664,28.50588
7812,0.09936523,0.972168,-0.1435547,-1.954198,-1.183206,0.3053435,28.50588
7796,0.104248,0.986084,-0.151123,0.7175572,0.2213741,1.183206,28.45882
7759,0.09692383,0.9763184,-0.1599121,0.5419847,0.5267176,0.9847328,28.50588
7793,0.1088867,0.986084,-0.1459961,-0.5496183,-0.7175572,-0.7328244,28.41176
7830,0.1071777,0.9829102,-0.137207,-1.534351,-0.740458,-0.2824428,28.45882
7790,0.09985352,0.9733887,-0.1413574,-1.282443,-0.389313,-0.3435115,28.45882
7817,0.1022949,0.9780273,-0.1547852,-1.763359,-0.8931297,-0.1755725,28.36471
7824,0.1088867,0.9775391,-0.1271973,-1.007634,-1.007634,-0.1984733,28.50588
7792,0.1132813,0.9853516,-0.1345215,-0.5877862,-0.9160305,-0.4427481,28.50588
8217,0.1062012,0.984375,-0.1374512,-1.740458,-0.740458,-1.152672,28.41176
7857,0.09570313,0.9743652,-0.1401367,-1.946565,-0.8931297,-0.9312977,28.45882
7816,0.111084,0.9802246,-0.138916,-2.114504,-0.3206107,-1.351145,28.45882
7821,0.1022949,0.973877,-0.1481934,-1.274809,-0.2824428,-0.6564885,28.36471
7825,0.1022949,0.9772949,-0.1430664,-1.557252,-0.6641222,-0.389313,28.50588
7808,0.1035156,0.9816895,-0.1386719,-0.3206107,-0.6412213,-0.7709923,28.55294
7826,0.09375,0.9780273,-0.1333008,-1.061069,-0.3358779,-0.5877862,28.45882
7797,0.09887695,0.980957,-0.1491699,-0.4503817,-0.6030535,0.09160305,28.50588
7822,0.1032715,0.970459,-0.1467285,-1.198473,-0.648855,-0.01526718,28.41176
7801,0.1066895,0.9753418,-0.1435547,-0.9083969,-0.351145,-0.07633588,28.45882
7803,0.1098633,0.9790039,-0.1357422,-0.04580153,-0.3358779,-0.1679389,28.41176
7809,0.1057129,0.9790039,-0.1347656,-0.7022901,-0.3129771,-0.2137404,28.45882
7803,0.09936523,0.9785156,-0.1435547,-0.4656488,-0.2977099,0.1526718,28.50588
7834,0.09594727,0.9748535,-0.1513672,-0.2519084,-0.6793893,0.09923664,28.55294
8143,0.1074219,0.9748535,-0.1362305,-0.2748091,-0.2290076,0.09160305,28.41176
7864,0.1105957,0.979248,-0.1318359,0.1526718,-0.2671756,-0.5038168,28.50588
7802,0.1777344,1.013184,-0.2597656,0.7175572,2.824427,-3.625954,28.45882
7814,0.4868164,0.9025879,-0.3842773,-23.23664,19.93893,-35.22901,28.50588
7828,0.2854004,0.9973145,-0.175293,-18.58015,3.687023,-46.30534,28.45882
7822,0.3105469,1.005371,-0.1396484,-24.67175,-7.29771,-57.77099,28.50588
7843,-0.2155762,0.8581543,-0.1379395,-40.48855,-26.83969,-40.39695,28.41176
7872,-0.2075195,0.7312012,-0.2143555,-34.13741,-14.01527,-39.12977,28.55294
7857,-0.1313477,1.079834,-0.03344727,-30.21374,-29.74046,-15.67176,28.50588
7804,-0.4355469,1.046875,0.1679688,-27.30534,0.9160305,8.167939,28.55294
7763,-0.1572266,1.008057,0.2399902,9.221375,-3.580153,12.96947,28.50588
7805,-0.126709,0.904541,0.1101074,26.37405,-7.076336,24.32061,28.50588
16209,-0.1037598,0.9260254,-0.2502441,31.08397,2.389313,41.00763,28.6
8277,0.2971191,0.8977051,-0.4248047,-9.473283,-14.51908,-16.01527,28.45882
7885,0.1560059,0.8552246,-0.3046875,-16.62595,-38.42748,-9.229008,28.50588
7860,-0.015625,0.9650879,-0.1086426,-29.63359,-13.81679,-6.343512,28.45882
7830,0.02758789,0.9951172,-0.02758789,-7.167939,18.76336,5.748092,28.45882
7792,-0.1025391,0.9914551,0.06811523,4.992366,70.93893,7.374046,28.41176
7802,0.2285156,0.9338379,0.2358398,21.83969,9.870229,1.801527,28.45882
7814,0.004394531,1.006836,0.03076172,33.44275,-5.030534,13.8626,28.6
7825,0.04174805,0.9667969,-0.171875,46.61069,8.732824,8.473283,28.45882
7840,0.1210938,0.9641113,-0.3679199,28.20611,-2.725191,4.282443,28.41176
7791,0.2241211,0.8632813,-0.4775391,11.25191,1.885496,-6.137404,28.45882
7790,0.2336426,0.9765625,-0.4125977,1.641221,-1.656489,0.4732824,28.55294
7803,0.07348633,0.9626465,-0.1762695,-15.52672,2.496183,-9.938931,28.50588
7818,-0.008300781,1.000488,-0.05249023,-16.53435,-2.312977,-3.832061,28.36471
7840,-0.01660156,1.015625,0.05444336,0.8396947,1.0,0.03053435,28.45882
8189,0.04150391,1.008057,-0.01782227,20.78626,2.977099,3.847328,28.50588
7821,0.04711914,1.012207,-0.1054688,35.19084,5.221374,23.03053,28.41176
7798,0.1079102,0.9431152,-0.2753906,29.56489,2.412214,12.05344,28.50588
7767,0.1445313,0.9377441,-0.3308105,24.93893,3.877863,10.32824,28.45882
7787,0.1728516,0.9462891,-0.3066406,16.19084,4.687023,16.19847,28.55294
7787,0.1291504,0.9621582,-0.192627,14.85496,5.870229,17.26718,28.41176
7795,0.4638672,0.371582,-0.02954102,110.8244,140.0382,120.1221,28.45882
7833,-0.01928711,1.116943,-0.1601563,24.19084,2.343511,17.42748,28.45882
7816,0.1020508,0.954834,-0.1142578,35.48855,2.763359,2.419847,28.50588
7848,0.1325684,0.9570313,-0.1611328,13.0229,-1.030534,-3.076336,28.55294
7797,0.1362305,0.9633789,-0.2854004,52.0229,10.0,-18.27481,28.45882
7776,0.07568359,0.9812012,-0.2050781,50.32824,13.32061,-13.61069,28.50588
7835,0.1811523,0.9812012,-0.2880859,42.67176,-6.961832,-43.34351,28.41176
7815,0.1364746,1.050049,-0.1994629,5.366412,-7.938931,3.442748,28.36471
8186,0.1164551,0.9523926,-0.234375,30.69466,-16.34351,-6.519084,28.41176
7864,0.09545898,0.8662109,-0.2297363,16.30534,-6.862596,-45.9771,28.50588
7835,0.1096191,0.9931641,-0.246582,2.251908,-5.267176,-7.78626,28.45882
7836,0.07885742,0.9775391,-0.2451172,7.236641,-3.10687,-1.916031,28.45882
7865,0.09448242,0.96875,-0.2719727,-0.8244275,-1.519084,-2.061069,28.41176
7833,0.1052246,0.958252,-0.2858887,0.519084,-38.83206,-65.34351,28.45882
7820,0.1774902,1.165283,-0.3388672,-12.58779,-3.038168,-2.625954,28.41176
7830,0.1286621,0.9580078,-0.284668,-3.396947,-4.885496,-4.633588,28.55294
7848,0.1115723,0.9645996,-0.2392578,-10.72519,-11.22901,-8.114504,28.45882
7789,0.08984375,0.9616699,-0.2287598,-26.03053,-14.78626,-4.984733,28.45882
7866,0.09008789,0.8615723,-0.2128906,-28.9771,-8.801527,-4.954198,28.45882
7853,0.07836914,0.9333496,-0.2287598,-15.17557,-4.305344,-3.427481,28.41176
7814,0.07470703,0.9726563,-0.2246094,-10.75572,-4.21374,-2.053435,28.36471
7836,0.07885742,0.9755859,-0.2141113,-15.51908,-5.374046,-0.8167939,28.36471
8201,0.09228516,0.9794922,-0.1943359,-14.66412,-6.679389,-0.5572519,28.36471
7872,0.1049805,0.9648438,-0.2329102,-4.557252,-3.160305,-1.900763,28.45882
7845,0.07348633,0.9626465,-0.2070313,6.366412,0.3206107,-7.267176,28.55294
7825,0.09667969,0.9780273,-0.2236328,-6.496183,-4.091603,-3.396947,28.41176
7840,0.08764648,0.9758301,-0.1994629,-14.23664,-5.305344,-2.160305,28.45882
7820,0.0793457,0.9748535,-0.2175293,-9.053435,-4.061069,-2.961832,28.50588
7835,0.07080078,0.9797363,-0.192627,-5.61832,-2.862595,-2.717557,28.55294
7815,0.06982422,0.9763184,-0.1906738,-3.328244,-2.435115,-1.725191,28.50588
7819,0.07592773,0.9824219,-0.2075195,-6.045802,-4.19084,-2.618321,28.45882
7809,0.07958984,0.9797363,-0.2021484,-9.526717,-4.572519,-1.862595,28.50588
7827,0.07275391,0.9760742,-0.2197266,-2.335878,-2.282443,-1.534351,28.6
7770,0.7963867,0.9233398,-0.1748047,87.0,250.1298,-68.35114,28.45882
7823,0.2539063,0.779541,-0.2875977,27.20611,240.6794,-25.47328,28.45882
7792,0.838623,1.029053,-0.4016113,10.19847,79.99236,2.610687,28.31765
8193,-0.111084,1.021973,-0.2424316,67.45038,41.29008,-13.0458,28.50588
7870,-0.1364746,0.9296875,-0.1726074,-24.61832,22.70992,90.61069,28.50588
7814,-0.5012207,1.737061,0.6496582,-248.1832,240.3359,250.1298,28.45882
7828,0.7749023,1.373779,0.6445313,-249.8855,-73.96183,250.1298,28.41176
